Time,AccX,AccY,AccZ,AngleX,AngleY,AngleZ,GyroX,GyroY,GyroZ,MagX,MagY,MagZ
215.03865253,0.9814,-0.1899,0.0205,,,,,,,-9276,155,-37
215.138652658,0.98,-0.1904,0.0195,-84.078,-78.959,-91.873,0.0,0.0,0.0,-9270,130,-52
215.238652748,0.9805,-0.1899,0.02,-84.067,-78.959,-91.873,0.0,0.0,0.0,-9278,141,-47
215.338652875,0.9805,-0.189,0.0195,-84.062,-78.959,-91.873,0.0,0.0,0.0,-9279,134,-35
215.438653002,0.9805,-0.1899,0.0205,-84.056,-78.964,-91.873,0.0,0.0,0.0,-9286,128,-59
215.538653093,0.98,-0.189,0.02,-84.051,-78.964,-91.873,0.0,0.0,0.0,-9280,152,-41
215.638653164,0.9814,-0.1914,0.0195,-84.062,-78.964,-91.84,0.0,-0.1831,0.0,-9286,144,-30
215.738653218,0.979,-0.1909,0.021,-84.067,-78.964,-91.835,0.0,0.061,0.0,-9274,159,-46
215.838653234,0.979,-0.1909,0.019,-84.023,-78.959,-91.879,0.0,0.061,0.0,-9255,153,-39
215.938653251,0.9814,-0.189,0.0215,-84.018,-78.959,-91.89,0.0,0.0,0.0,-9260,142,-58
216.038653352,0.98,-0.1909,0.0195,-84.012,-78.959,-91.906,0.0,0.061,0.0,-9259,145,-49
216.138653434,0.98,-0.1904,0.021,-84.018,-78.959,-91.895,0.0,-0.061,0.0,-9274,153,-36
216.238653535,0.979,-0.1909,0.0195,-84.018,-78.959,-91.901,0.0,0.061,0.0,-9269,145,-42
216.338653599,0.98,-0.1895,0.0195,-84.001,-78.953,-91.906,0.0,0.0,0.0,-9269,133,-53
216.438653626,0.98,-0.1904,0.021,-83.996,-78.953,-91.906,0.0,0.0,0.0,-9271,137,-41
216.53865369,0.981,-0.1904,0.0195,-83.996,-78.953,-91.906,0.0,0.0,0.0,-9257,153,-52
216.63865381,0.98,-0.1899,0.02,-83.99,-78.953,-91.906,0.0,0.0,0.0,-9264,147,-49
216.738653874,0.9795,-0.1904,0.019,-83.985,-78.953,-91.906,0.0,0.0,0.0,-9273,141,-55
216.838653919,0.981,-0.1899,0.0195,-83.985,-78.948,-91.906,0.0,0.0,0.0,-9257,134,-40
216.938654058,0.98,-0.1909,0.02,-83.985,-78.948,-91.906,0.0,0.0,0.0,-9261,153,-43
217.038654096,0.9805,-0.1899,0.02,-83.985,-78.948,-91.906,0.0,0.0,0.0,-9264,156,-56
217.138654152,0.9795,-0.1909,0.02,-83.985,-78.948,-91.906,0.0,0.0,0.0,-9261,143,-45
217.238654171,0.981,-0.1895,0.02,-83.985,-78.948,-91.906,0.0,0.0,0.0,-9267,138,-41
217.338654245,0.979,-0.1895,0.02,-83.985,-78.948,-91.906,0.0,0.0,0.0,-9262,146,-37
217.438654356,0.981,-0.1899,0.021,-83.979,-78.948,-91.906,0.0,0.0,0.0,-9276,157,-41
217.538654357,0.9795,-0.1899,0.02,-83.974,-78.948,-91.906,0.0,0.0,0.0,-9264,157,-22
217.638654431,0.9795,-0.1904,0.0205,-83.963,-78.948,-91.906,0.0,0.0,0.0,-9272,130,-35
217.738654506,0.98,-0.1899,0.02,-83.963,-78.948,-91.906,0.0,0.0,0.0,-9259,126,-46
217.838654524,0.979,-0.1895,0.0205,-83.963,-78.948,-91.906,0.0,0.0,0.0,-9265,136,-60
217.9386546,0.98,-0.1899,0.0195,-83.963,-78.948,-91.906,0.0,0.0,0.0,-9264,142,-43
218.038654684,0.9795,-0.1904,0.0205,-83.963,-78.948,-91.906,0.0,0.0,0.0,-9261,145,-43
218.138654732,0.981,-0.1904,0.0195,-83.963,-78.948,-91.906,0.0,0.0,0.0,-9271,149,-36
218.238654853,0.9805,-0.1899,0.0195,-83.963,-78.948,-91.906,0.0,0.0,0.0,-9278,145,-53
218.338654864,0.981,-0.1904,0.021,-83.963,-78.948,-91.906,0.0,0.0,0.0,-9284,137,-39
218.438654985,0.98,-0.1909,0.019,-83.958,-78.948,-91.906,0.0,0.0,0.0,-9290,139,-27
218.53865507,0.9795,-0.1904,0.0205,-83.958,-78.948,-91.906,0.0,0.0,0.0,-9297,165,-19
218.638655192,0.9795,-0.1899,0.019,-83.958,-78.948,-91.906,0.0,0.0,0.0,-9294,147,-30
218.738655258,0.98,-0.1909,0.021,-83.958,-78.948,-91.906,0.0,0.0,0.0,-9304,132,-30
218.838655342,0.98,-0.1899,0.0205,-83.958,-78.948,-91.906,0.0,0.0,0.0,-9312,140,-52
218.938655409,0.979,-0.1904,0.0205,-83.958,-78.948,-91.906,0.0,0.0,0.0,-9287,126,-56
219.038655503,0.9805,-0.1904,0.02,-83.952,-78.948,-91.906,0.0,0.0,0.0,-9289,141,-43
219.138655505,0.98,-0.1909,0.02,-83.952,-78.948,-91.906,0.0,0.0,0.0,-9288,127,-43
219.238655618,0.98,-0.1909,0.02,-83.952,-78.948,-91.906,0.0,0.0,0.0,-9293,142,-50
219.338655638,0.9805,-0.1909,0.0195,-83.947,-78.948,-91.906,0.0,0.0,0.0,-9286,137,-57
219.43865564,0.9805,-0.1904,0.02,-83.947,-78.942,-91.906,0.0,0.0,0.0,-9284,137,-13
219.538655697,0.98,-0.1904,0.0195,-83.952,-78.942,-91.906,0.0,0.0,0.0,-9282,135,-30
219.638655717,0.9805,-0.1899,0.02,-83.947,-78.942,-91.906,0.0,0.0,0.0,-9274,135,-29
219.738655793,0.98,-0.1904,0.019,-83.947,-78.942,-91.906,0.0,0.0,0.0,-9277,142,-41
219.838655795,0.9819,-0.1909,0.02,-83.947,-78.948,-91.906,0.0,0.0,0.0,-9273,136,-40
219.938655872,0.9814,-0.1899,0.0195,-83.947,-78.948,-91.906,0.0,0.0,0.0,-9278,148,-45
220.038655939,0.9814,-0.189,0.0166,-83.947,-78.948,-91.906,0.0,0.0,0.0,-9264,141,-35
220.138656024,0.978,-0.189,0.0186,-83.925,-78.959,-91.934,0.0,0.061,-0.4272,-9285,129,-47
220.238656146,0.9814,-0.1885,0.0171,-83.914,-78.964,-91.939,0.0,-0.1221,0.2441,-9264,133,-46
220.338656194,0.9873,-0.1914,0.0142,-83.925,-78.97,-91.928,0.0,0.061,-0.2441,-9267,128,-28
220.438656206,1.0366,-0.1562,0.0776,-84.045,-78.975,-91.868,-2.0142,-0.8545,0.3052,-9270,137,-42
220.538656254,0.9604,-0.1963,-0.2983,-91.791,-78.613,-84.787,6.0425,-44.2505,9.0942,-9369,157,19
220.638656358,0.8545,-0.2295,-0.1309,-92.285,-79.607,-80.92,35.1562,5.9204,-15.9912,-9646,-17,210
220.738656369,0.9238,-0.499,-0.0625,-89.698,-79.233,-83.99,-17.0898,5.4321,27.2217,-9569,-90,170
220.838656454,0.9565,-0.1733,-0.0854,-90.236,-79.25,-85.331,-39.4897,2.3804,-8.606,-9439,75,64
220.938656577,1.0493,-0.1299,0.103,-87.995,-79.124,-89.022,6.2256,1.77,3.9062,-9375,100,-34
221.038656579,0.9478,-0.1382,0.0073,-89.874,-78.92,-87.281,0.0,-0.9766,-1.5259,-9393,134,-15
221.138656581,0.9966,-0.2397,-0.0161,-88.984,-78.695,-88.275,-3.6621,-0.1831,4.0894,-9341,157,-42
221.238656694,0.9561,-0.0859,0.0405,-87.808,-78.865,-90.115,-10.8032,11.9629,-9.5215,-9319,183,-48
221.338656715,0.9365,-0.3159,0.0483,-87.962,-78.931,-90.209,5.3711,-4.5166,2.1362,-9331,156,-85
221.438656809,0.9634,-0.1963,-0.0181,-88.539,-78.964,-89.692,-6.897,3.6621,-0.9155,-9323,155,-60
221.538656922,0.9932,-0.1665,0.0229,-86.66,-78.926,-92.192,-1.709,3.2959,-3.6011,-9312,169,-105
221.638656998,0.9814,-0.1377,0.0049,-87.578,-78.986,-91.241,3.3569,-3.418,0.4883,-9328,160,-86
221.738657037,0.9941,-0.1978,-0.0142,-87.929,-78.832,-90.862,-1.3428,-0.9766,-0.061,-9305,174,-75
221.83865715,0.9951,-0.1514,0.0317,-86.847,-78.992,-92.329,-1.0986,3.479,-5.188,-9311,163,-84
221.938657153,0.9688,-0.2212,0.0083,-87.418,-78.986,-91.637,0.9155,-1.3428,0.7935,-9329,144,-93
222.038657275,0.9854,-0.1968,0.0,-87.61,-78.937,-91.483,-3.2959,2.1362,1.0376,-9321,167,-110
222.138657304,0.9756,-0.1665,0.0195,-86.825,-78.926,-92.653,0.4883,0.6104,-1.77,-9312,176,-107
222.238657389,0.9785,-0.1958,0.0044,-87.155,-79.019,-92.269,0.9766,-0.8545,-0.061,-9319,152,-85
222.338657437,0.9771,-0.1958,0.0103,-87.347,-78.904,-92.137,-1.3428,0.7935,-0.4272,-9308,170,-103
222.438657559,0.9839,-0.188,0.0098,-86.776,-79.019,-92.933,0.3052,0.5493,-2.0752,-9321,163,-96
222.538657681,0.9712,-0.1909,0.0054,-87.006,-79.019,-92.681,0.0,-0.4883,0.6714,-9314,152,-96
222.63865771,0.9819,-0.1978,0.0127,-87.083,-78.942,-92.659,-0.4272,0.6104,0.3662,-9315,154,-103
222.738657776,0.9785,-0.186,0.0049,-86.918,-79.014,-92.911,0.1831,-0.1221,-1.5259,-9304,170,-87
222.838657861,0.9771,-0.1997,0.0093,-87.16,-79.008,-92.637,0.0,-0.1831,1.2817,-9320,146,-94
222.938657928,0.981,-0.1875,0.0098,-87.105,-78.953,-92.802,-0.1221,0.3052,-0.3052,-9309,169,-120
223.03865804,0.9785,-0.1904,0.0088,-87.078,-79.008,-92.856,0.0,-0.1831,-0.3662,-9309,170,-87
223.138658078,0.9775,-0.1924,0.0107,-87.094,-78.992,-92.867,0.0,0.2441,0.5493,-9319,155,-94
223.23865819,0.9829,-0.1875,0.0078,-87.067,-78.953,-92.977,0.0,-0.1221,0.061,-9305,158,-112
223.33865821,0.9814,-0.189,0.0112,-87.111,-78.997,-92.977,0.0,0.0,-0.3052,-9325,154,-89
223.438658229,0.98,-0.1895,0.0083,-87.072,-78.981,-93.038,0.0,0.061,0.3052,-9325,163,-88
223.538658341,0.9805,-0.1899,0.0093,-87.105,-78.981,-93.027,0.0,-0.061,-0.1221,-9318,159,-98
223.638658435,0.978,-0.1909,0.0112,-87.105,-78.986,-93.071,0.0,0.061,0.061,-9328,165,-107
223.738658528,0.9805,-0.1914,0.0078,-87.094,-78.959,-93.131,-0.061,0.0,0.4883,-9329,159,-90
223.838658622,0.9824,-0.1904,0.0103,-87.1,-78.953,-93.181,0.0,0.0,-0.1221,-9320,172,-99
223.938658753,0.9775,-0.1909,0.0083,-87.083,-78.953,-93.246,0.0,0.1221,0.061,-9328,168,-94
224.0386588,0.9785,-0.1909,0.0103,-87.089,-78.948,-93.263,0.0,-0.061,0.061,-9299,168,-117
224.138658901,0.9829,-0.1904,0.0093,-87.094,-78.964,-93.296,0.061,0.061,-0.3662,-9314,161,-87
224.238658985,0.9761,-0.1924,0.0098,-87.105,-78.953,-93.296,-0.061,0.0,0.3052,-9310,171,-76
224.338659068,0.9824,-0.1909,0.0083,-87.094,-78.953,-93.307,0.0,0.0,-0.1221,-9321,161,-85
224.438659114,0.9775,-0.189,0.0107,-87.105,-78.97,-93.323,0.061,0.061,-0.3052,-9318,164,-103
224.538659216,0.9819,-0.1895,0.0078,-87.072,-78.986,-93.378,0.0,0.0,0.0,-9300,162,-87
224.638659318,0.98,-0.1904,0.0098,-87.083,-78.986,-93.389,0.0,0.0,-0.061,-9312,170,-92
224.738659346,0.9805,-0.189,0.0088,-87.083,-78.992,-93.4,0.0,0.061,0.061,-9310,166,-90
224.838659355,0.98,-0.1899,0.0093,-87.072,-78.992,-93.433,0.0,0.0,0.0,-9307,167,-98
224.938659365,0.9785,-0.1895,0.0098,-87.1,-78.997,-93.466,0.0,0.0,-0.061,-9324,158,-133
225.038659401,0.9829,-0.1899,0.0112,-87.078,-78.997,-93.527,0.0,0.061,0.0,-9308,150,-93
225.138659418,0.978,-0.189,0.0093,-87.089,-79.003,-93.521,0.0,-0.061,0.0,-9297,155,-99
225.23865951,0.9824,-0.1885,0.0098,-87.078,-79.003,-93.543,0.0,0.061,0.0,-9316,148,-102
225.33865962,0.9795,-0.1895,0.0083,-87.083,-79.008,-93.527,0.0,0.0,0.0,-9310,162,-88
225.438659656,0.9814,-0.189,0.0098,-87.089,-79.008,-93.516,0.0,0.0,0.0,-9311,162,-90
225.538659747,0.98,-0.1895,0.0078,-87.083,-79.014,-93.565,0.0,0.0,0.0,-9327,156,-106
225.63865982,0.9805,-0.1895,0.0107,-87.089,-79.014,-93.576,0.0,0.0,0.0,-9328,158,-102
225.738659874,0.9805,-0.1895,0.0083,-87.094,-79.014,-93.593,0.0,0.0,0.0,-9331,157,-95
225.83865991,0.9805,-0.1904,0.0098,-87.094,-79.014,-93.598,0.0,0.0,0.0,-9340,162,-103
225.938659984,0.9814,-0.189,0.0088,-87.089,-79.019,-93.62,0.0,0.0,0.0,-9324,154,-100
226.038659991,0.9805,-0.1895,0.0088,-87.094,-79.019,-93.609,0.0,-0.061,0.0,-9319,145,-90
226.138660016,0.981,-0.1885,0.0098,-87.1,-79.019,-93.615,0.0,0.1221,0.0,-9320,150,-93
226.23866006,0.98,-0.1895,0.0078,-87.1,-79.019,-93.587,0.0,0.0,0.0,-9318,151,-91
226.338660159,0.981,-0.1895,0.0117,-87.105,-79.019,-93.582,0.0,0.0,0.0,-9316,150,-105
226.438660203,0.9795,-0.1885,0.0083,-87.116,-79.025,-93.571,0.0,0.0,0.0,-9326,169,-74
226.538660228,0.981,-0.1885,0.0093,-87.111,-79.025,-93.554,0.0,0.0,0.0,-9318,170,-107
226.638660327,0.9805,-0.1895,0.0088,-87.116,-79.025,-93.576,0.0,0.0,0.0,-9307,164,-96
226.738660389,0.981,-0.1899,0.0093,-87.122,-79.025,-93.565,0.0,0.0,0.0,-9314,149,-101
226.838660415,0.9795,-0.189,0.0093,-87.133,-79.025,-93.593,0.0,0.0,0.0,-9322,153,-109
226.938660459,0.98,-0.189,0.0083,-87.133,-79.03,-93.62,0.0,0.0,0.0,-9303,155,-122
227.038660566,0.98,-0.189,0.0107,-87.133,-79.03,-93.642,0.0,0.0,0.0,-9323,151,-80
227.138660636,0.98,-0.189,0.0078,-87.133,-79.03,-93.642,0.0,0.0,0.0,-9312,157,-97
227.238660706,0.9805,-0.189,0.0088,-87.127,-79.03,-93.664,0.0,0.0,0.0,-9310,163,-97
227.338660776,0.98,-0.1899,0.0088,-87.133,-79.03,-93.669,0.0,0.0,0.0,-9324,175,-107
227.438660901,0.98,-0.1895,0.0093,-87.133,-79.03,-93.675,0.0,0.0,0.0,-9304,167,-96
227.538660934,0.9795,-0.1895,0.0093,-87.144,-79.036,-93.675,0.0,0.0,0.0,-9315,175,-92
227.638660948,0.98,-0.189,0.0093,-87.144,-79.036,-93.68,0.0,0.0,0.0,-9305,161,-100
227.738661074,0.9805,-0.1899,0.0093,-87.149,-79.036,-93.686,0.0,0.0,0.0,-9309,155,-89
227.838661088,0.98,-0.1895,0.0093,-87.149,-79.036,-93.658,0.0,0.0,0.0,-9319,163,-86
227.93866114,0.981,-0.1904,0.0088,-87.149,-79.036,-93.642,0.0,0.0,0.0,-9319,165,-102
228.038661199,0.9805,-0.1895,0.0088,-87.149,-79.036,-93.636,0.0,0.0,0.0,-9317,160,-80
228.138661239,0.9805,-0.189,0.0093,-87.149,-79.036,-93.631,0.0,0.0,0.0,-9306,161,-80
228.238661316,0.9971,-0.1914,-0.0024,-87.149,-79.036,-93.631,0.0,0.0,0.0,-9325,161,-76
228.338661319,0.9834,-0.188,0.0054,-87.006,-79.069,-93.774,0.1221,0.9766,-1.3428,-9319,165,-87
228.438661433,0.978,-0.1851,-0.0029,-87.155,-79.052,-93.56,0.3052,-0.5493,0.3052,-9317,143,-78
228.538661436,0.9814,-0.1934,0.0,-87.303,-79.008,-93.323,-0.1831,-0.4272,1.3428,-9334,158,-102
228.638661495,0.9731,-0.1865,0.0098,-87.237,-78.992,-93.444,0.0,0.2441,-0.4272,-9314,170,-86
228.738661609,0.9824,-0.1895,0.001,-87.072,-79.025,-93.631,0.0,-0.1221,0.1221,-9330,173,-101
228.838661613,0.9775,-0.1909,0.0142,-87.209,-79.003,-93.51,0.0,-0.061,-0.061,-9347,155,-129
228.93866169,0.9849,-0.1875,0.0059,-87.072,-79.03,-93.708,0.061,0.1221,-0.3052,-9339,147,-93
229.038661738,0.9824,-0.1909,0.0088,-87.182,-79.036,-93.554,0.0,-0.3052,0.061,-9344,140,-84
229.138661748,0.979,-0.188,0.0107,-87.275,-78.992,-93.461,0.0,-0.1221,0.5493,-9338,151,-102
229.238661832,0.9844,-0.1855,0.0054,-87.248,-78.997,-93.505,0.0,0.1221,-0.1221,-9323,136,-77
229.338661954,0.98,-0.1899,0.0083,-87.303,-78.975,-93.411,0.0,-0.1221,0.2441,-9331,135,-76
229.438662001,0.9819,-0.189,0.0093,-87.248,-78.986,-93.472,0.0,0.3052,-0.061,-9305,118,-93
229.538662011,0.9785,-0.1909,0.0088,-87.209,-78.992,-93.477,0.0,-0.061,0.0,-9306,107,-74
229.638662096,0.9834,-0.1885,0.0088,-87.171,-78.975,-93.521,-0.5493,0.4883,0.061,-9303,100,-98
229.738662124,0.98,-0.1895,0.0083,-87.067,-79.019,-93.647,0.061,0.1831,-0.7324,-9291,102,-88
229.838662227,0.979,-0.1904,0.0098,-87.039,-79.041,-93.658,0.0,-0.1221,0.2441,-9309,119,-100
229.938662238,0.9829,-0.1895,0.0107,-87.045,-79.025,-93.625,0.0,0.061,0.0,-9320,154,-83
230.03866233,0.9824,-0.1885,0.0083,-87.028,-79.036,-93.615,0.0,-0.061,-0.1221,-9333,165,-104
230.138662458,0.9805,-0.1904,0.0127,-87.05,-79.03,-93.593,0.0,0.061,0.1831,-9331,164,-99
230.238662586,0.9829,-0.1895,0.0049,-87.039,-79.014,-93.615,0.061,-0.061,0.3052,-9341,135,-88
230.338662714,0.9751,-0.1904,0.0127,-87.127,-78.992,-93.483,0.0,-0.061,0.1831,-9338,125,-95
230.438662843,0.98,-0.1899,0.0049,-87.045,-78.981,-93.565,-0.061,0.2441,0.061,-9320,106,-76
230.538662915,0.9814,-0.189,0.0122,-87.045,-78.992,-93.527,0.061,-0.1221,-0.3662,-9314,97,-97
230.638662951,0.981,-0.1895,0.0103,-87.023,-79.025,-93.527,0.0,0.1831,-0.1221,-9310,95,-64
230.738663079,0.9824,-0.189,0.0039,-87.012,-79.019,-93.527,0.0,-0.1221,0.061,-9306,140,-98
230.838663189,0.9771,-0.188,0.0117,-87.089,-79.008,-93.461,0.0,0.0,0.1831,-9333,157,-108
230.938663207,0.9824,-0.188,0.0059,-87.061,-79.008,-93.532,0.0,0.0,0.0,-9339,152,-108
231.038663249,0.98,-0.1909,0.0142,-87.089,-79.008,-93.51,0.0,0.0,0.0,-9331,141,-110
231.138663366,0.9819,-0.1909,0.0098,-87.05,-79.008,-93.587,0.0,0.1221,0.0,-9329,118,-89
231.238663445,0.9834,-0.189,0.0107,-87.078,-79.008,-93.554,0.0,-0.2441,0.0,-9329,91,-99
231.338663506,0.9814,-0.1924,0.0107,-87.138,-78.992,-93.472,-0.061,0.0,0.6104,-9330,93,-85
231.438663511,0.978,-0.1904,0.0122,-87.056,-78.97,-93.565,-0.2441,0.4272,-0.1831,-9306,116,-100
231.538663628,0.9849,-0.1895,0.0146,-86.863,-79.003,-93.807,0.1221,0.0,-0.3662,-9298,159,-87
231.638663744,0.98,-0.1899,0.0107,-86.858,-79.036,-93.807,0.0,0.0,-0.3662,-9330,169,-100
231.738663768,0.98,-0.1885,0.0093,-86.863,-79.025,-93.774,0.0,-0.061,0.3052,-9324,158,-86
231.838663774,0.9814,-0.1841,0.0112,-86.847,-79.036,-93.779,0.0,0.1831,-0.2441,-9317,115,-99
231.938663835,0.9893,-0.187,0.0093,-86.935,-79.047,-93.669,0.0,0.0,0.1221,-9312,91,-78
232.03866394,0.9741,-0.188,0.0093,-87.127,-78.981,-93.406,0.0,-0.4272,0.9766,-9307,96,-78
232.138664025,0.9819,-0.1934,0.0093,-86.951,-78.964,-93.615,-0.9155,1.3428,0.0,-9290,119,-92
232.238664111,0.9927,-0.1685,0.0215,-86.495,-78.986,-94.136,0.3662,0.061,-1.0986,-9297,162,-78
232.338664142,0.9902,-0.1821,0.0142,-86.688,-79.041,-93.818,0.9766,-0.8545,0.0,-9317,158,-92
232.438664246,0.9844,-0.1943,0.0073,-86.852,-78.975,-93.615,0.1221,-0.5493,0.7935,-9308,129,-86
232.538664351,0.9746,-0.1846,0.0132,-86.743,-79.003,-93.741,0.1831,0.1221,-0.8545,-9317,99,-85
232.638664399,0.9829,-0.1973,0.0088,-86.786,-79.052,-93.647,0.0,-0.2441,0.1221,-9303,84,-83
232.738664522,0.9824,-0.1973,0.0264,-86.847,-78.997,-93.593,0.061,0.0,0.4883,-9290,110,-97
232.838664534,0.9917,-0.1865,-0.0049,-86.836,-79.058,-93.615,0.3052,-0.7324,-0.6104,-9313,142,-111
232.938664602,0.9795,-0.1904,0.0151,-87.204,-78.986,-93.197,-0.061,0.0,1.4038,-9334,147,-109
233.03866462,0.9834,-0.1885,0.0127,-86.863,-79.058,-93.647,0.2441,0.8545,-1.4648,-9333,115,-99
233.138664676,0.9746,-0.187,0.0,-87.111,-79.014,-93.312,0.0,-1.2207,1.2207,-9323,111,-88
233.238664694,0.9834,-0.1943,0.0195,-87.111,-79.014,-93.318,0.061,0.9766,-0.6104,-9316,99,-96
233.338664804,0.9805,-0.1841,-0.0034,-87.001,-79.025,-93.466,0.0,-0.3662,0.0,-9300,108,-83
233.438664915,0.981,-0.1914,0.0127,-87.231,-79.025,-93.186,0.0,-0.1831,0.3662,-9328,148,-91
233.538665044,0.9741,-0.1855,0.0112,-87.083,-79.003,-93.4,0.061,0.4272,-0.3052,-9330,149,-77
233.638665118,0.9819,-0.1899,0.0063,-87.017,-79.058,-93.395,0.0,-0.4272,-0.061,-9334,120,-81
233.738665173,0.9785,-0.1895,0.0132,-87.094,-79.025,-93.274,0.0,0.1831,0.4272,-9329,100,-82
233.838665284,0.9795,-0.1895,0.0112,-86.984,-79.014,-93.395,0.0,0.061,-0.2441,-9310,98,-81
233.93866534,0.9854,-0.1934,0.0132,-87.039,-79.041,-93.307,0.0,0.1831,0.061,-9309,82,-75
234.038665364,0.9785,-0.189,0.0088,-87.001,-79.025,-93.34,0.0,0.0,0.1831,-9296,117,-100
234.138665425,0.9805,-0.188,0.0083,-87.039,-79.019,-93.318,0.0,0.0,-0.061,-9336,154,-78
234.238665523,0.979,-0.189,0.0107,-87.045,-79.036,-93.329,0.0,0.0,0.0,-9350,144,-90
234.338665566,0.9805,-0.187,0.0103,-87.094,-79.014,-93.285,0.0,-0.061,0.1221,-9336,126,-80
234.43866559,0.9795,-0.1885,0.0068,-87.078,-79.025,-93.285,0.0,0.0,0.0,-9329,103,-90
234.538665707,0.979,-0.1914,0.0088,-87.138,-79.014,-93.246,0.0,-0.1221,0.2441,-9310,97,-99
234.63866575,0.979,-0.1875,0.0098,-87.166,-79.014,-93.241,0.0,-0.061,-0.2441,-9314,75,-84
234.738665774,0.9805,-0.1899,0.0054,-87.182,-79.052,-93.214,0.0,0.061,-0.061,-9304,86,-56
234.83866578,0.979,-0.188,0.0112,-87.177,-79.03,-93.17,0.0,0.1221,0.2441,-9315,135,-81
234.938665804,0.9819,-0.1885,0.0078,-87.1,-79.036,-93.29,0.0,-0.061,-0.1221,-9314,144,-105
235.038665834,0.98,-0.1919,0.0122,-87.116,-79.025,-93.285,0.0,0.0,0.3052,-9332,146,-91
235.13866592,0.9893,-0.1885,0.0044,-87.116,-79.019,-93.329,0.0,0.1221,-0.1221,-9315,137,-105
235.238666006,0.9766,-0.1924,0.0073,-87.16,-79.03,-93.29,0.0,-0.1221,-0.2441,-9335,107,-88
235.338666036,0.9771,-0.1909,0.0122,-87.078,-79.03,-93.4,0.0,0.4883,0.4883,-9322,102,-82
235.438666159,0.9771,-0.1909,0.0122,-87.028,-79.041,-93.433,0.0,-0.1831,-0.5493,-9306,87,-79
235.538666189,0.9844,-0.189,0.0137,-87.16,-79.052,-93.214,0.0,-0.1221,0.3662,-9314,65,-59
235.638666237,0.9771,-0.1846,0.0083,-87.177,-79.041,-93.219,0.0,0.3662,-0.4272,-9290,85,-94
235.738666249,0.9819,-0.1875,0.0034,-87.259,-79.058,-93.137,0.0,-0.3052,0.061,-9285,117,-82
235.838666316,0.979,-0.1909,0.0117,-87.297,-79.052,-93.12,0.0,0.2441,-0.1831,-9325,142,-111
235.938666347,0.979,-0.188,0.0039,-87.286,-79.058,-93.192,0.0,-0.061,0.1221,-9326,154,-107
236.038666475,0.9717,-0.1904,0.0059,-87.391,-79.041,-93.076,0.0,0.061,0.2441,-9334,139,-94
236.138666585,0.9717,-0.1899,0.0229,-87.435,-79.003,-93.06,0.0,0.1831,0.3662,-9336,137,-88
236.238666602,0.978,-0.187,0.0049,-87.314,-79.03,-93.203,0.0,0.2441,-0.3662,-9323,123,-82
236.338666731,0.981,-0.1899,0.0078,-87.396,-79.03,-93.06,0.0,-0.3662,0.1221,-9312,92,-76
236.438666859,0.9849,-0.1875,0.0093,-87.286,-79.003,-93.181,0.0,0.4883,0.4272,-9320,100,-76
236.53866695,0.9785,-0.1899,0.0059,-87.308,-79.03,-93.142,0.0,-0.3662,-0.4883,-9326,91,-73
236.638666968,0.9824,-0.1914,0.0161,-87.352,-79.019,-93.098,0.0,0.0,0.6104,-9327,87,-61
236.738667096,0.9868,-0.189,0.002,-87.242,-78.997,-93.17,0.0,0.0,0.0,-9298,78,-73
236.838667113,0.9775,-0.1904,0.0098,-87.275,-78.997,-93.082,0.0,0.0,0.0,-9278,96,-69
236.938667205,0.98,-0.1899,0.0093,-87.16,-78.997,-93.224,0.0,0.4272,0.1831,-9294,135,-77
237.038667321,0.9824,-0.188,0.0068,-87.177,-78.992,-93.197,0.0,-0.1831,0.0,-9290,140,-83
237.138667343,0.9775,-0.1904,0.0122,-87.166,-78.992,-93.23,0.0,0.3052,0.061,-9305,156,-96
237.23866744,0.9834,-0.189,0.0054,-87.1,-78.992,-93.356,0.0,-0.061,0.0,-9315,161,-117
237.338667519,0.9795,-0.1909,0.0112,-87.166,-78.992,-93.301,0.0,0.0,0.0,-9318,154,-95
237.43866756,0.9814,-0.1899,0.0083,-87.111,-78.997,-93.422,0.0,0.1221,0.0,-9316,142,-132
237.538667638,0.98,-0.189,0.0083,-87.155,-78.997,-93.378,0.0,-0.1831,0.0,-9323,117,-94
237.638667698,0.9785,-0.1899,0.0103,-87.149,-78.997,-93.384,0.0,0.2441,0.0,-9309,125,-72
237.738667814,0.981,-0.189,0.0068,-87.1,-78.997,-93.389,0.0,-0.061,0.0,-9311,104,-74
237.838667892,0.978,-0.1914,0.0112,-87.144,-79.003,-93.318,0.0,0.061,0.0,-9317,105,-73
237.938667897,0.9819,-0.1885,0.0083,-87.094,-79.003,-93.373,0.0,0.061,0.0,-9320,111,-88
238.038668036,0.9785,-0.1899,0.0098,-87.122,-79.003,-93.307,0.0,-0.061,0.0,-9310,113,-60
238.138668157,0.981,-0.1895,0.0083,-87.105,-79.003,-93.285,0.0,0.1221,0.0,-9294,91,-60
238.238668167,0.981,-0.1895,0.0073,-87.105,-79.003,-93.208,0.0,-0.1221,0.0,-9289,97,-70
238.338668176,0.979,-0.1904,0.0103,-87.127,-79.003,-93.115,0.0,0.1221,0.0,-9282,91,-80
238.43866826,0.9814,-0.1875,0.0078,-87.105,-79.008,-93.082,0.0,0.0,0.0,-9286,103,-75
238.538668325,0.9795,-0.1904,0.0107,-87.122,-79.008,-92.999,0.0,0.0,0.0,-9263,99,-76
238.63866839,0.9814,-0.189,0.0068,-87.089,-79.008,-92.983,0.0,0.0,0.0,-9283,108,-99
238.738668493,0.9805,-0.1895,0.0103,-87.089,-79.008,-92.922,0.0,0.0,0.0,-9281,133,-79
238.838668576,0.9805,-0.1895,0.0093,-87.138,-79.014,-92.84,0.0,0.2441,0.0,-9284,141,-76
238.938668642,0.9814,-0.1899,0.0034,-87.111,-79.014,-92.823,0.0,-0.3662,0.0,-9296,155,-87
239.038668768,0.9761,-0.1899,0.0137,-87.281,-79.014,-92.615,0.0,0.2441,0.0,-9299,167,-93
239.13866882,0.9829,-0.188,-0.001,-87.198,-79.014,-92.67,0.061,-0.4272,0.0,-9314,161,-75
239.238668927,0.9814,-0.1904,0.0107,-87.402,-79.019,-92.401,0.0,0.0,0.0,-9308,158,-76
239.338668979,0.9775,-0.187,0.0098,-87.413,-79.025,-92.406,0.0,0.1221,0.0,-9312,147,-93
239.43866905,0.981,-0.189,0.0083,-87.495,-79.025,-92.263,0.0,-0.5493,0.0,-9325,158,-88
239.538669064,0.9834,-0.1904,0.0093,-87.501,-79.025,-92.186,0.0,0.2441,0.0,-9326,141,-76
239.638669135,0.9834,-0.1875,0.0083,-87.418,-79.025,-92.23,0.0,-0.3662,0.0,-9328,142,-87
239.738669205,0.9785,-0.1899,0.0142,-87.556,-79.03,-92.065,0.0,0.3052,0.0,-9318,140,-61
239.838669331,0.98,-0.1885,0.0039,-87.44,-79.036,-92.175,0.0,0.061,0.0,-9334,138,-87
239.938669421,0.9829,-0.1895,0.0127,-87.599,-79.036,-91.972,0.0,-0.4272,0.0,-9334,141,-101
240.038669533,0.9785,-0.189,0.0024,-87.523,-79.036,-92.032,0.0,0.3052,0.0,-9337,126,-73
240.138669646,0.9849,-0.189,0.0054,-87.512,-79.025,-91.989,0.0,-0.1831,0.3662,-9326,136,-69
240.23866974,0.9746,-0.1895,0.0078,-87.528,-79.025,-91.972,0.1831,0.061,-0.2441,-9311,148,-88
240.338669834,0.9868,-0.1934,0.0073,-87.556,-79.025,-91.945,0.0,0.061,0.4883,-9312,134,-99
240.43866989,0.98,-0.1841,0.0054,-87.632,-79.019,-91.835,0.3052,-0.4272,-0.6104,-9314,143,-102
240.538669947,0.9971,-0.1934,0.0127,-87.759,-79.052,-91.648,0.0,-0.061,0.0,-9338,124,-83
240.638669949,1.0039,-0.1533,-0.0029,-87.704,-79.036,-91.686,0.061,0.2441,0.1221,-9334,130,-78
240.73866995,0.9976,-0.1631,-0.0142,-87.918,-79.074,-91.384,3.6011,-3.3569,-2.0752,-9329,137,-87
240.838670063,0.9834,-0.1963,0.0132,-89.225,-79.294,-89.857,3.9062,-4.1504,-2.8687,-9341,101,-37
240.938670176,0.9858,-0.1821,-0.0122,-91.395,-79.459,-87.259,0.9155,-1.0376,0.0,-9326,111,12
241.038670237,0.9858,-0.1821,-0.0112,-91.379,-79.448,-87.27,0.1221,0.0,-0.1831,-9279,140,105
241.138670355,0.9834,-0.1821,-0.0107,-91.791,-79.448,-86.786,1.4038,-1.0376,0.0,-9270,142,111
241.238670361,0.9805,-0.1812,-0.0137,-91.945,-79.442,-86.605,0.0,0.061,0.1831,-9246,157,162
241.338670478,0.9839,-0.1807,-0.0122,-92.032,-79.442,-86.468,0.0,0.0,-0.061,-9229,160,178
241.438670577,0.9775,-0.1797,-0.0103,-92.115,-79.448,-86.396,0.0,0.1221,0.0,-9228,169,143
241.538670657,0.978,-0.1797,-0.0083,-92.219,-79.453,-86.303,0.0,-0.1831,0.0,-9254,188,141
241.638670756,0.98,-0.1782,-0.0039,-92.263,-79.459,-86.237,0.0,0.061,0.0,-9355,457,161
241.738670855,0.9858,-0.1802,-0.0112,-92.351,-79.475,-85.457,0.0,0.0,0.1831,-9613,595,536
241.838670935,0.981,-0.1792,-0.0078,-92.406,-79.459,-83.969,0.2441,-0.3052,-0.4272,-9746,491,815
241.938671053,0.9824,-0.1816,-0.0083,-92.384,-79.486,-82.403,0.0,0.1221,0.0,-9768,385,941
242.03867112,0.9819,-0.1792,-0.0083,-92.362,-79.47,-80.942,0.0,-0.061,0.061,-9761,365,921
242.138671205,0.981,-0.1821,-0.0059,-92.351,-79.475,-79.547,0.0,0.1831,0.0,-9751,367,945
242.238671327,0.9834,-0.1807,-0.0098,-92.329,-79.481,-78.212,0.0,-0.061,0.0,-9760,363,944
242.338671375,0.9839,-0.1831,-0.0059,-92.439,-79.486,-76.844,0.0,-0.2441,0.0,-9757,427,878
242.438671515,0.9839,-0.1821,-0.0098,-92.444,-79.492,-75.894,0.0,0.061,-0.1831,-9621,587,539
242.538671545,0.9766,-0.1797,-0.0112,-92.648,-79.503,-75.734,2.0142,-1.8921,0.061,-9333,241,201
242.638671556,0.979,-0.1797,-0.0103,-92.917,-79.503,-75.553,0.0,0.1221,-0.1221,-9456,-48,560
242.738671622,0.9839,-0.1787,-0.0117,-92.873,-79.503,-75.097,0.0,0.0,0.1221,-9592,-14,871
242.838671633,0.9814,-0.1797,-0.0083,-92.895,-79.503,-74.279,0.0,-0.061,0.0,-9647,56,969
242.938671737,0.9805,-0.1787,-0.0093,-92.873,-79.508,-73.433,0.0,0.061,0.061,-9667,90,990
243.038671771,0.9819,-0.1792,-0.0127,-92.873,-79.508,-72.57,0.0,-0.061,0.0,-9672,89,1017
243.138671861,0.978,-0.1792,-0.0103,-92.878,-79.514,-71.713,0.0,0.061,0.0,-9674,108,1028
243.238671913,0.9849,-0.1816,-0.0122,-92.966,-79.514,-70.84,0.0,-0.4272,0.0,-9683,94,1016
243.338671984,0.98,-0.1802,-0.0044,-92.999,-79.519,-70.049,0.0,0.3662,0.0,-9683,97,1032
243.438672074,0.9834,-0.1807,-0.0093,-92.928,-79.519,-69.417,0.0,0.0,0.0,-9689,100,1040
243.538672182,0.981,-0.1812,-0.0083,-92.939,-79.525,-68.714,0.0,-0.061,0.0,-9691,96,1039
243.638672272,0.9834,-0.1807,-0.0088,-92.895,-79.525,-68.143,0.0,0.3662,0.0,-9686,79,1002
243.738672398,0.9824,-0.1836,-0.0122,-92.884,-79.525,-67.764,0.0,-0.1831,0.0,-9596,-40,788
243.838672469,0.979,-0.1792,-0.0049,-92.922,-79.514,-68.176,0.0,0.1831,0.2441,-9377,220,247
243.938672541,0.9834,-0.1802,-0.0103,-92.867,-79.541,-68.698,0.0,0.0,-0.1221,-9627,545,529
244.038672635,0.9805,-0.1802,-0.0093,-92.939,-79.525,-68.165,0.0,-0.1221,0.1831,-9754,433,866
244.138672729,0.9824,-0.1792,-0.0103,-92.911,-79.525,-67.516,0.0,0.1221,-0.061,-9763,325,988
244.238672767,0.981,-0.1807,-0.0107,-92.933,-79.53,-66.819,0.0,-0.061,0.0,-9726,242,1034
244.33867288,0.9824,-0.1807,-0.0103,-92.933,-79.53,-66.187,0.0,0.1221,0.061,-9718,211,1046
244.438672937,0.981,-0.1797,-0.0107,-92.933,-79.536,-65.583,0.0,-0.061,0.0,-9730,198,1057
244.538672957,0.9824,-0.1797,-0.0107,-92.972,-79.536,-64.973,0.0,0.061,0.0,-9732,178,1074
244.638672958,0.9771,-0.1787,-0.0151,-92.95,-79.536,-64.451,0.0,0.1221,0.0,-9757,256,1028
244.738673071,0.9863,-0.1802,-0.0073,-92.994,-79.536,-63.935,0.0,0.1221,0.0,-9764,399,895
244.838673202,0.9819,-0.1807,-0.0098,-92.955,-79.541,-63.666,0.0,0.1831,0.0,-9719,546,707
244.938673278,0.9844,-0.1802,-0.0088,-92.966,-79.541,-63.754,0.0,-0.061,0.0,-9615,608,435
245.038673358,0.978,-0.1807,-0.0078,-92.966,-79.541,-64.495,0.0,0.061,0.0,-9480,552,241
245.138673363,0.9839,-0.1792,-0.0107,-92.939,-79.547,-65.649,0.0,-0.061,0.0,-9397,447,102
245.238673462,0.9814,-0.1816,-0.0088,-92.972,-79.547,-66.907,0.0,0.0,0.0,-9361,354,77
245.338673468,0.98,-0.1797,-0.0093,-92.966,-79.547,-68.198,0.0,0.061,0.0,-9377,320,52
245.438673547,0.9839,-0.1821,-0.0195,-93.038,-79.547,-69.368,0.0,-0.1221,0.0,-9408,287,27
245.538673609,0.9736,-0.1792,-0.0093,-92.675,-79.552,-71.027,-1.2207,0.9766,0.0,-9415,234,0
245.638673633,0.9888,-0.1816,-0.0029,-92.648,-79.552,-72.246,-0.1221,0.3052,0.0,-9417,188,-19
245.738673713,0.9941,-0.1416,-0.0308,-91.522,-79.519,-74.685,-0.4883,0.9766,0.9155,-9413,154,-36
245.838673718,0.9746,-0.1958,-0.0054,-89.522,-79.211,-77.904,0.3662,1.4648,1.77,-9409,167,-70
245.938673817,0.9927,-0.1826,0.0142,-88.391,-79.178,-80.266,-2.7466,2.6245,0.061,-9382,185,-97
246.038673827,0.981,-0.1816,0.0293,-90.681,-79.156,-78.234,1.8921,-2.4414,0.1221,-9386,161,-112
246.138673892,0.979,-0.1895,0.02,-88.303,-79.184,-82.189,-12.5732,11.7188,-0.1831,-9381,166,-102
246.238673902,0.9829,-0.1895,0.0142,-85.512,-79.173,-86.55,0.0,0.0,0.1221,-9340,213,-137
246.338673912,0.9771,-0.186,0.0127,-85.512,-79.146,-87.133,0.0,0.1221,0.2441,-9343,214,-174
246.438673959,0.981,-0.188,0.0151,-85.353,-79.124,-87.819,0.0,0.061,0.4272,-9317,215,-150
246.538674043,0.98,-0.1895,0.02,-85.347,-79.107,-88.33,0.0,0.4883,-0.061,-9326,228,-155
246.638674108,0.9785,-0.187,0.0112,-85.188,-79.102,-88.896,0.0,0.0,0.1221,-9328,209,-154
246.738674192,0.9814,-0.1895,0.0166,-85.161,-79.091,-89.28,0.0,0.0,0.1831,-9328,222,-159
246.838674313,0.9795,-0.188,0.0186,-85.111,-79.08,-89.736,0.0,0.3662,-0.061,-9317,226,-160
246.938674435,0.9824,-0.1914,0.0132,-85.073,-79.085,-90.121,0.0,-0.3662,0.1221,-9321,215,-172
247.038674486,0.9761,-0.189,0.0249,-85.122,-79.08,-90.439,0.0,0.2441,0.0,-9323,221,-202
247.1386745,0.9839,-0.189,0.0112,-84.935,-79.096,-90.961,-0.061,0.0,0.061,-9309,197,-163
247.238674514,0.9785,-0.1899,0.0225,-85.045,-79.08,-91.071,0.0,0.0,0.0,-9357,209,-158
247.338674602,0.981,-0.189,0.0186,-84.831,-79.091,-91.615,0.061,0.3662,-0.3052,-9336,209,-180
247.438674634,0.9795,-0.189,0.0107,-84.842,-79.102,-91.84,0.0,-0.4272,0.1221,-9351,209,-180
247.538674722,0.9805,-0.1875,0.0234,-84.88,-79.085,-92.032,0.0,0.4883,0.061,-9334,210,-170
247.638674847,0.9829,-0.188,0.0078,-84.776,-79.085,-92.379,0.0,-0.3052,0.0,-9326,211,-164
247.738674898,0.9795,-0.188,0.0244,-84.941,-79.074,-92.379,0.0,-0.1221,0.2441,-9304,206,-186
247.838674986,0.981,-0.1875,0.0186,-84.798,-79.085,-92.78,0.0,0.3052,-0.3052,-9306,186,-176
247.938675,0.981,-0.1875,0.0146,-84.814,-79.085,-92.944,0.0,-0.4272,0.5493,-9319,182,-177
248.038675092,0.9761,-0.189,0.021,-84.913,-79.058,-93.01,0.0,0.1831,-0.1831,-9305,180,-156
248.138675221,0.9824,-0.1875,0.0059,-84.864,-79.058,-93.208,0.0,-0.3052,0.3662,-9297,174,-144
248.238675239,0.9751,-0.1895,0.0112,-85.023,-79.019,-93.148,-0.061,-0.061,0.1831,-9277,193,-162
248.338675294,0.9751,-0.187,0.0156,-84.771,-79.019,-93.593,-0.4272,0.9155,-0.1831,-9255,199,-167
248.43867533,0.9873,-0.1895,0.0151,-84.781,-79.063,-93.691,0.0,-0.6714,-0.7324,-9296,232,-168
248.538675403,0.978,-0.1904,0.0215,-84.781,-79.047,-93.851,0.0,0.2441,0.4272,-9331,243,-173
248.638675458,0.9839,-0.1904,0.0166,-84.705,-79.041,-94.076,0.0,-0.1831,-0.061,-9337,249,-180
248.738675495,0.9785,-0.1914,0.022,-84.798,-79.041,-94.103,0.0,0.0,0.0,-9335,231,-162
248.838675531,0.9829,-0.1875,0.0176,-84.694,-79.036,-94.307,0.0,0.1221,0.1221,-9329,226,-151
248.938675642,0.98,-0.189,0.0181,-84.749,-79.036,-94.307,0.0,-0.1831,-0.061,-9336,201,-163
249.038675719,0.98,-0.1904,0.0176,-84.721,-79.036,-94.417,0.0,0.2441,0.0,-9322,180,-161
249.138675833,0.9814,-0.187,0.0132,-84.694,-79.03,-94.548,0.0,-0.1221,0.0,-9316,182,-184
249.238675892,0.978,-0.1909,0.019,-84.732,-79.03,-94.609,0.0,0.1221,0.0,-9300,185,-177
249.33867595,0.9824,-0.1885,0.0151,-84.683,-79.03,-94.735,0.0,0.0,0.0,-9295,208,-136
249.438676083,0.98,-0.189,0.0186,-84.732,-79.03,-94.691,0.0,-0.061,0.0,-9291,229,-144
249.53867616,0.9814,-0.1895,0.0176,-84.688,-79.03,-94.818,0.0,0.1221,0.0,-9301,253,-180
249.638676274,0.9814,-0.1895,0.0176,-84.705,-79.03,-94.878,0.0,-0.1831,0.0,-9310,246,-190
249.738676296,0.98,-0.1895,0.0186,-84.716,-79.03,-94.982,0.0,0.1221,0.0,-9315,234,-178
249.838676373,0.9824,-0.1885,0.0161,-84.699,-79.025,-95.048,0.0,-0.061,0.0,-9319,220,-153
249.938676376,0.9824,-0.1885,0.0161,-84.721,-79.025,-95.059,0.0,0.061,0.0,-9317,218,-168
250.038676494,0.9819,-0.1885,0.0166,-84.683,-79.03,-95.164,0.0,0.061,0.0,-9325,201,-176
250.138676594,0.9795,-0.1895,0.0156,-84.699,-79.025,-95.186,0.0,-0.061,0.0,-9322,189,-156
250.238676619,0.9795,-0.1895,0.0156,-84.677,-79.025,-95.235,0.0,0.1221,0.0,-9296,172,-158
250.338676681,0.9805,-0.1885,0.0156,-84.677,-79.025,-95.279,0.0,-0.061,0.0,-9300,168,-174
250.438676688,0.9805,-0.1885,0.0156,-84.688,-79.025,-95.301,0.0,0.0,0.0,-9292,167,-161
250.53867675,0.979,-0.189,0.0186,-84.699,-79.025,-95.317,0.0,0.0,0.0,-9282,179,-145
250.638676794,0.98,-0.188,0.0161,-84.694,-79.025,-95.328,0.0,0.0,0.0,-9290,196,-172
250.738676838,0.979,-0.1899,0.0181,-84.705,-79.025,-95.389,0.0,0.0,0.0,-9285,227,-182
250.8386769,0.9805,-0.189,0.0166,-84.705,-79.025,-95.444,0.0,0.0,0.0,-9276,231,-194
250.938677,0.98,-0.189,0.0171,-84.716,-79.025,-95.532,0.0,0.0,0.0,-9303,240,-179
251.038677029,0.9795,-0.1895,0.0181,-84.716,-79.025,-95.576,0.0,0.0,0.0,-9313,238,-170
251.138677131,0.9824,-0.1875,0.019,-84.705,-79.025,-95.647,0.0,0.2441,0.0,-9320,244,-193
251.238677197,0.9771,-0.1924,0.0396,-84.743,-79.008,-95.735,0.0,-0.4883,-0.1221,-9312,233,-179
251.338677282,0.9824,-0.1914,0.022,-84.754,-79.019,-95.812,-0.061,0.3052,0.1221,-9330,235,-192
251.43867731,0.9751,-0.1924,0.0171,-84.732,-79.008,-95.955,0.061,-0.3662,0.0,-9319,219,-184
251.538677395,0.9893,-0.1948,0.0273,-84.754,-79.003,-96.037,0.0,0.2441,0.1221,-9310,233,-169
251.638677442,0.9814,-0.1938,0.0249,-84.573,-78.997,-96.334,-0.8545,0.7324,-0.1831,-9305,212,-180
251.738677489,0.9951,-0.1958,0.0322,-84.177,-79.003,-96.85,0.061,-0.1831,-0.3052,-9292,200,-174
251.838677574,0.9785,-0.1846,0.0229,-84.073,-79.052,-96.949,0.0,0.3662,0.3052,-9302,193,-190
251.938677677,0.9917,-0.1958,0.0229,-84.177,-78.981,-96.839,0.0,-0.2441,0.1221,-9291,188,-186
252.038677728,0.9766,-0.1841,0.0205,-84.106,-79.036,-96.888,0.0,0.3662,-0.3052,-9293,192,-197
252.138677815,0.9839,-0.1919,0.0176,-84.111,-79.014,-96.888,0.0,-0.061,0.2441,-9281,185,-188
252.238677959,0.9785,-0.189,0.019,-84.133,-79.008,-96.828,0.0,0.061,0.0,-9294,187,-160
252.33867801,0.9751,-0.1846,0.0127,-84.144,-79.019,-96.773,0.0,0.1221,-0.061,-9298,176,-197
252.438678134,0.9834,-0.1899,0.022,-84.133,-79.014,-96.812,0.0,0.2441,0.061,-9304,169,-193
252.538678222,0.981,-0.1904,0.0264,-84.084,-79.014,-96.823,0.0,0.061,0.061,-9291,181,-177
252.638678291,0.98,-0.1909,0.0171,-84.177,-78.981,-96.674,0.0,0.0,0.1831,-9297,168,-164
252.738678324,0.9775,-0.189,0.0264,-84.045,-79.019,-96.79,0.0,0.2441,-0.3052,-9275,173,-176
252.838678393,0.981,-0.1929,0.0176,-84.15,-78.975,-96.636,-0.1221,0.0,0.4272,-9280,187,-170
252.938678407,0.9814,-0.1875,0.0205,-84.018,-79.03,-96.746,0.1221,0.3662,-0.7935,-9271,193,-173
253.038678498,0.9814,-0.189,0.0244,-84.051,-79.025,-96.713,0.0,-0.3662,0.3662,-9276,187,-193
253.138678589,0.979,-0.1885,0.0117,-84.161,-79.014,-96.581,0.0,0.061,0.0,-9280,230,-187
253.238678662,0.9751,-0.188,0.0176,-84.1,-79.019,-96.669,0.0,0.0,0.0,-9285,239,-197
253.338678679,0.978,-0.1914,0.0176,-84.216,-78.981,-96.531,0.0,-0.2441,0.5493,-9288,231,-194
253.438678733,0.9678,-0.187,0.0181,-84.122,-79.003,-96.652,0.0,0.5493,-0.3052,-9293,249,-187
253.538678769,0.9819,-0.1895,0.0205,-84.084,-78.986,-96.702,0.0,0.1221,0.0,-9300,248,-203
253.638678841,0.9731,-0.1875,0.0088,-84.117,-78.986,-96.674,0.0,0.1221,0.1221,-9288,255,-202
253.738678858,0.9741,-0.1885,0.0264,-83.996,-79.003,-96.861,0.0,0.061,-0.3052,-9294,254,-201
253.838678912,0.9824,-0.1865,0.0103,-84.205,-79.008,-96.63,0.0,-0.3052,0.0,-9318,252,-220
253.938678948,0.978,-0.1934,0.0298,-84.111,-78.992,-96.861,0.0,0.5493,0.4272,-9320,258,-222
254.03867895,0.9751,-0.1914,0.021,-84.15,-78.981,-96.812,0.0,-0.5493,-0.1831,-9315,259,-190
254.138679007,0.9834,-0.1904,0.0176,-84.199,-78.986,-96.746,0.0,0.4883,-0.061,-9314,243,-194
254.238679139,0.9736,-0.189,0.0234,-84.04,-78.992,-96.905,0.0,0.0,0.1221,-9313,242,-189
254.338679233,0.9849,-0.1895,0.0166,-84.172,-78.986,-96.724,0.0,-0.061,-0.1831,-9337,234,-182
254.438679309,0.9814,-0.1904,0.0156,-84.106,-78.997,-96.784,0.0,0.3662,0.1831,-9329,233,-188
254.538679329,0.9829,-0.1909,0.019,-84.089,-78.992,-96.806,0.0,-0.2441,0.1221,-9314,242,-213
254.638679386,0.9927,-0.1948,0.0146,-84.194,-78.964,-96.729,0.1831,-0.6714,-0.061,-9307,252,-220
254.738679444,0.9795,-0.189,0.0283,-84.034,-79.019,-96.921,0.0,0.1831,-0.4272,-9310,242,-202
254.838679464,0.9883,-0.1934,0.0195,-84.144,-78.97,-96.801,0.0,-0.4272,0.6104,-9313,235,-202
254.93867954,0.9775,-0.1899,0.019,-84.117,-78.992,-96.839,0.061,0.3052,-0.4883,-9316,228,-198
255.038679656,0.9844,-0.1919,0.0254,-84.067,-78.997,-96.872,0.0,-0.1221,0.1831,-9319,242,-181
255.138679753,0.9814,-0.188,0.0161,-84.144,-78.986,-96.762,0.0,0.0,0.1221,-9305,245,-198
255.238679814,0.9814,-0.1885,0.0244,-84.067,-78.992,-96.899,0.0,0.1831,-0.061,-9319,224,-225
255.338679837,0.98,-0.1899,0.0166,-84.122,-78.986,-96.861,0.0,-0.1831,0.1221,-9308,248,-215
255.438679898,0.9795,-0.1899,0.0205,-84.084,-78.992,-96.938,0.0,0.1831,-0.1221,-9324,260,-211
255.538680014,0.9795,-0.189,0.0181,-84.062,-78.992,-96.982,0.0,-0.1831,0.0,-9318,260,-212
255.638680111,0.9844,-0.1899,0.0171,-84.095,-78.997,-96.938,0.0,0.1831,0.0,-9331,242,-188
255.738680209,0.9688,-0.1851,0.0186,-84.04,-78.997,-96.971,0.0,-0.1221,0.0,-9313,236,-189
255.838680325,0.9878,-0.189,0.0117,-84.106,-78.97,-96.823,0.0,0.0,0.061,-9312,246,-167
255.938680385,0.9727,-0.1875,0.02,-84.04,-78.986,-96.905,0.0,0.0,0.0,-9313,240,-209
256.038680449,0.9844,-0.1875,0.0156,-84.073,-78.981,-96.861,0.0,0.0,0.0,-9322,244,-190
256.138680512,0.979,-0.1919,0.0234,-84.062,-78.975,-96.888,0.0,-0.061,0.061,-9311,242,-208
256.238680613,0.9844,-0.1885,0.0166,-84.172,-78.981,-96.773,0.0,-0.1221,0.0,-9312,246,-195
256.338680713,0.9785,-0.189,0.0186,-84.155,-78.981,-96.784,0.0,0.2441,0.0,-9315,251,-182
256.43868074,0.981,-0.1895,0.021,-84.122,-78.981,-96.812,0.0,-0.1831,0.0,-9307,252,-202
256.538680822,0.98,-0.1875,0.0151,-84.155,-78.986,-96.784,0.0,0.061,0.0,-9327,249,-191
256.638680941,0.98,-0.1904,0.021,-84.144,-78.986,-96.784,0.0,0.061,0.0,-9331,247,-193
256.738680967,0.981,-0.189,0.0195,-84.188,-78.992,-96.735,0.0,-0.1221,0.0,-9337,256,-202
256.838681068,0.978,-0.1885,0.0181,-84.161,-78.992,-96.779,0.0,0.1831,0.0,-9332,269,-199
256.938681187,0.981,-0.1899,0.0205,-84.177,-78.992,-96.762,0.0,-0.1831,0.0,-9337,246,-180
257.038681235,0.9819,-0.1895,0.0186,-84.045,-78.992,-96.921,0.0,0.6104,0.0,-9323,232,-174
257.138681246,0.979,-0.1914,0.0249,-84.034,-78.992,-96.96,0.0,-0.061,0.0,-9321,246,-195
257.238681293,0.9814,-0.1885,0.019,-84.045,-78.992,-96.932,0.0,0.0,0.0,-9328,239,-200
257.33868136,0.9785,-0.1899,0.0205,-84.045,-78.992,-96.932,0.0,0.0,0.0,-9322,248,-190
257.438681389,0.98,-0.1895,0.0186,-84.056,-78.997,-96.927,0.0,-0.1221,0.0,-9326,252,-189
257.538681493,0.981,-0.1904,0.0166,-84.073,-78.997,-96.921,0.0,0.1221,0.0,-9307,249,-183
257.638681503,0.9771,-0.1885,0.0195,-84.051,-78.997,-96.954,0.0,-0.061,0.0,-9312,256,-195
257.738681551,0.9849,-0.1885,0.019,-84.144,-78.997,-96.855,0.0,-0.1831,0.0,-9329,240,-184
257.838681655,0.98,-0.1895,0.0195,-84.051,-78.997,-96.96,0.0,0.4272,0.0,-9317,231,-181
257.938681777,0.981,-0.188,0.0171,-84.128,-78.997,-96.872,0.0,-0.4883,0.0,-9335,248,-193
258.038681865,0.979,-0.1914,0.022,-84.122,-78.997,-96.899,0.0,0.3662,0.0,-9311,253,-186
258.138681952,0.98,-0.1895,0.0181,-84.111,-78.997,-96.91,0.0,-0.1831,0.0,-9316,247,-183
258.238681985,0.9805,-0.1895,0.0195,-84.133,-78.997,-96.905,0.0,0.1221,0.0,-9311,243,-218
258.338682017,0.9795,-0.1904,0.02,-84.144,-78.997,-96.894,0.0,-0.1221,0.0,-9323,234,-216
258.438682049,0.981,-0.1895,0.0161,-84.139,-78.997,-96.91,0.0,0.2441,0.0,-9306,244,-218
258.53868206,0.979,-0.189,0.0234,-84.045,-78.992,-97.026,0.0,-0.061,0.0,-9315,229,-219
258.638682135,0.9849,-0.189,0.0137,-84.177,-78.997,-96.877,0.0,-0.061,0.0,-9328,243,-186
258.738682136,0.9775,-0.1895,0.0205,-84.073,-78.997,-97.02,0.0,0.3052,0.0,-9307,235,-214
258.83868223,0.98,-0.1895,0.0195,-84.111,-78.992,-96.971,0.0,-0.4272,0.0,-9320,240,-200
258.938682314,0.9819,-0.1875,0.0176,-84.128,-78.997,-96.96,0.0,0.3052,0.0,-9308,248,-191
259.038682321,0.9795,-0.1909,0.0229,-84.111,-78.997,-96.982,0.0,-0.3662,0.0,-9313,248,-208
259.138682345,0.9844,-0.189,0.0132,-84.194,-78.997,-96.883,0.0,0.1221,0.0,-9310,247,-203
259.238682462,0.9766,-0.1914,0.0264,-84.062,-78.997,-97.053,0.0,0.1221,0.0,-9314,240,-216
259.338682543,0.9844,-0.1914,0.0195,-84.172,-78.997,-96.927,0.0,-0.3052,0.0,-9316,244,-211
259.438682641,0.979,-0.1885,0.0195,-84.106,-78.997,-97.009,0.0,0.5493,0.0,-9320,236,-189
259.53868274,0.9824,-0.1895,0.0244,-84.023,-78.997,-97.108,0.0,-0.2441,0.0,-9319,237,-204
259.638682857,0.979,-0.1865,0.0112,-84.106,-79.003,-97.015,0.0,0.0,0.0,-9306,232,-183
259.738682956,0.9814,-0.1899,0.0234,-84.034,-79.003,-97.13,0.0,0.3052,0.0,-9314,232,-191
259.838682962,0.9736,-0.1885,0.0151,-84.023,-79.014,-97.119,0.0,-0.3662,0.2441,-9335,232,-187
259.938683006,0.9805,-0.188,0.0156,-84.117,-78.986,-97.026,0.0,-0.061,-0.061,-9320,256,-183
260.03868306,0.9795,-0.187,0.0166,-84.056,-78.997,-97.097,0.0,0.0,0.1221,-9311,252,-206
260.138683133,0.9819,-0.1875,0.0142,-84.111,-78.992,-97.037,0.0,0.0,-0.061,-9330,232,-203
260.238683224,0.9814,-0.1895,0.022,-84.056,-78.992,-97.108,0.0,0.1221,0.0,-9315,231,-216
260.338683352,0.979,-0.1885,0.0142,-84.056,-78.986,-97.108,0.0,-0.061,0.1221,-9318,251,-189
260.438683387,0.9819,-0.1909,0.0229,-84.04,-78.986,-97.141,0.0,0.0,-0.1831,-9339,234,-190
260.538683404,0.9824,-0.1885,0.0156,-84.089,-78.992,-97.086,0.0,-0.061,0.0,-9338,236,-186
260.638683421,0.9795,-0.1895,0.0215,-84.067,-78.992,-97.125,0.0,0.1221,0.0,-9307,228,-179
260.738683457,0.981,-0.1875,0.0186,-84.056,-78.992,-97.136,0.0,-0.061,0.0,-9294,236,-208
260.838683548,0.979,-0.1895,0.0166,-84.067,-78.997,-97.125,0.0,0.061,0.0,-9317,247,-206
260.938683566,0.9795,-0.1899,0.0225,-84.034,-78.997,-97.169,0.0,0.0,0.0,-9327,255,-205
261.038683686,0.9814,-0.189,0.0166,-84.062,-78.997,-97.141,0.0,0.0,0.0,-9328,243,-193
261.138683732,0.98,-0.1895,0.022,-84.029,-78.997,-97.185,0.0,0.061,0.0,-9322,242,-199
261.238683815,0.981,-0.1895,0.0181,-84.056,-78.997,-97.152,0.0,-0.061,0.0,-9322,238,-215
261.338683899,0.981,-0.189,0.021,-84.04,-78.997,-97.185,0.0,0.1221,0.0,-9331,255,-182
261.438684,0.98,-0.1899,0.02,-84.034,-78.997,-97.185,0.0,-0.061,0.0,-9328,246,-168
261.538684083,0.9814,-0.1895,0.0186,-84.056,-78.997,-97.174,0.0,0.0,0.0,-9324,255,-194
261.638684111,0.9795,-0.1899,0.0205,-84.056,-78.997,-97.174,0.0,0.0,0.0,-9312,259,-209
261.738684176,0.9819,-0.1885,0.0181,-84.056,-78.997,-97.174,0.0,0.0,0.0,-9328,235,-206
261.838684185,0.98,-0.1885,0.02,-84.062,-79.003,-97.174,0.0,0.0,0.0,-9339,240,-198
261.938684288,0.9805,-0.189,0.0186,-84.062,-78.997,-97.174,0.0,0.0,0.0,-9319,230,-215
262.038684326,0.981,-0.189,0.0195,-84.073,-79.003,-97.174,0.0,0.0,0.0,-9331,245,-192
262.138684345,0.979,-0.1899,0.0205,-84.067,-79.003,-97.174,0.0,0.0,0.0,-9334,233,-207
262.238684421,0.981,-0.189,0.0186,-84.067,-79.003,-97.174,0.0,0.0,0.0,-9325,227,-215
262.338684533,0.979,-0.1895,0.02,-84.073,-79.003,-97.174,0.0,0.0,0.0,-9326,246,-200
262.438684534,0.981,-0.188,0.0195,-84.067,-79.003,-97.174,0.0,0.0,0.0,-9332,250,-189
262.538684572,0.9795,-0.1885,0.0195,-84.067,-79.003,-97.18,0.0,0.0,0.0,-9323,232,-186
262.638684647,0.9805,-0.1895,0.02,-84.062,-79.003,-97.18,0.0,0.0,0.0,-9312,235,-195
262.738684704,0.981,-0.189,0.0195,-84.062,-79.003,-97.18,0.0,0.0,0.0,-9321,246,-191
262.838684798,0.98,-0.189,0.0195,-84.062,-79.003,-97.18,0.0,0.0,0.0,-9325,250,-198
262.938684855,0.981,-0.189,0.0186,-84.062,-79.003,-97.174,0.0,0.0,0.0,-9312,249,-200
263.038684941,0.9795,-0.1899,0.02,-84.062,-79.008,-97.174,0.0,0.0,0.0,-9328,242,-200
263.138685045,0.9814,-0.1885,0.0186,-84.062,-79.008,-97.174,0.0,0.0,0.0,-9328,245,-201
263.238685149,0.979,-0.189,0.0195,-84.062,-79.008,-97.174,0.0,0.0,0.0,-9340,237,-201
263.338685234,0.9795,-0.1895,0.019,-84.062,-79.003,-97.174,0.0,0.0,0.0,-9320,252,-198
263.438685246,0.9805,-0.189,0.0181,-84.067,-79.003,-97.174,0.0,0.0,0.0,-9330,262,-191
263.538685294,0.98,-0.1895,0.02,-84.073,-79.003,-97.174,0.0,0.0,0.0,-9324,261,-205
263.638685398,0.9805,-0.189,0.0181,-84.078,-79.008,-97.18,0.0,0.0,0.0,-9322,243,-210
263.738685484,0.979,-0.1899,0.0195,-84.084,-79.008,-97.18,0.0,0.0,0.0,-9334,235,-205
263.838685588,0.981,-0.1885,0.02,-84.084,-79.008,-97.18,0.0,0.0,0.0,-9336,245,-197
263.9386856,0.9805,-0.189,0.019,-84.089,-79.008,-97.18,0.0,0.0,0.0,-9330,234,-200
264.038685696,0.9814,-0.1885,0.019,-84.095,-79.008,-97.18,0.0,0.0,0.0,-9327,250,-200
264.138685699,0.9795,-0.1885,0.019,-84.095,-79.008,-97.18,0.0,0.0,0.0,-9316,240,-198
264.238685721,0.9805,-0.1895,0.0205,-84.095,-79.008,-97.18,0.0,0.0,0.0,-9322,232,-198
264.338685761,0.98,-0.1885,0.0181,-84.095,-79.008,-97.18,0.0,0.0,0.0,-9318,243,-223
264.438685764,0.9805,-0.1885,0.0205,-84.1,-79.008,-97.18,0.0,0.0,0.0,-9339,247,-227
264.538685841,0.981,-0.1885,0.0195,-84.095,-79.008,-97.18,0.0,0.0,0.0,-9326,251,-216
264.638685863,0.981,-0.1885,0.019,-84.095,-79.008,-97.18,0.0,0.0,0.0,-9311,234,-207
264.73868594,0.98,-0.1895,0.0205,-84.089,-79.014,-97.18,0.0,0.0,0.0,-9325,234,-186
264.838685962,0.98,-0.1895,0.019,-84.089,-79.014,-97.18,0.0,0.0,0.0,-9326,245,-218
264.938686021,0.9805,-0.1899,0.0205,-84.095,-79.014,-97.174,0.0,0.0,0.0,-9326,243,-201
265.038686035,0.9805,-0.189,0.019,-84.089,-79.014,-97.174,0.0,0.0,0.0,-9318,244,-222
265.138686048,0.98,-0.189,0.02,-84.089,-79.014,-97.174,0.0,0.0,0.0,-9321,250,-213
265.238686116,0.98,-0.189,0.019,-84.089,-79.014,-97.174,0.0,0.0,0.0,-9324,233,-211
265.33868613,0.9805,-0.1895,0.0195,-84.089,-79.014,-97.174,0.0,0.0,0.0,-9312,247,-207
265.438686235,0.9805,-0.189,0.0195,-84.089,-79.014,-97.174,0.0,0.0,0.0,-9311,239,-180
265.538686248,0.981,-0.189,0.019,-84.089,-79.014,-97.174,0.0,0.0,0.0,-9319,251,-193
265.638686373,0.9805,-0.1885,0.0195,-84.089,-79.014,-97.174,0.0,0.0,0.0,-9306,238,-198
265.738686423,0.98,-0.189,0.019,-84.095,-79.014,-97.174,0.0,0.0,0.0,-9322,242,-195
265.838686436,0.9805,-0.189,0.0186,-84.1,-79.014,-97.174,0.0,0.0,0.0,-9309,245,-196
265.93868645,0.9805,-0.1895,0.019,-84.1,-79.014,-97.18,0.0,0.0,0.0,-9302,243,-193
266.038686529,0.9805,-0.1885,0.019,-84.106,-79.014,-97.18,0.0,0.0,0.0,-9313,231,-181
266.138686644,0.98,-0.189,0.02,-84.106,-79.014,-97.18,0.0,0.0,0.0,-9330,242,-210
266.238686686,0.981,-0.1885,0.0186,-84.106,-79.014,-97.18,0.0,0.0,0.0,-9336,249,-196
266.338686764,0.98,-0.1895,0.019,-84.117,-79.014,-97.18,0.0,0.0,0.0,-9325,247,-203
266.438686769,0.981,-0.189,0.019,-84.117,-79.014,-97.18,0.0,0.0,0.0,-9314,243,-197
266.538686847,0.9819,-0.1895,0.0195,-84.117,-79.014,-97.18,0.0,0.0,0.0,-9306,252,-216
266.638686944,0.981,-0.189,0.021,-84.117,-79.014,-97.18,0.0,0.0,0.0,-9305,267,-206
266.738686949,0.981,-0.1875,0.0171,-84.122,-79.014,-97.163,0.0,-0.061,0.0,-9300,260,-208
266.838687009,0.98,-0.1909,0.021,-84.078,-79.014,-97.229,0.0,0.1221,0.0,-9325,261,-202
266.938687089,0.979,-0.188,0.0151,-84.1,-79.014,-97.196,0.0,-0.1221,0.0,-9312,272,-222
267.038687177,0.979,-0.1899,0.0186,-84.078,-79.019,-97.224,0.0,0.1831,0.0,-9299,263,-206
267.138687191,0.9805,-0.1899,0.02,-84.078,-79.014,-97.229,0.0,-0.1831,0.0,-9305,275,-224
267.238687279,0.9819,-0.187,0.0146,-84.111,-79.019,-97.191,0.0,0.1221,0.0,-9297,252,-201
267.338687312,0.9775,-0.1909,0.019,-84.073,-79.019,-97.251,0.0,0.0,0.0,-9305,259,-214
267.438687345,0.9814,-0.1865,0.0161,-84.117,-79.019,-97.196,0.0,-0.1221,0.0,-9302,277,-198
267.538687396,0.9819,-0.189,0.0186,-84.117,-79.019,-97.213,0.0,0.061,0.0,-9300,267,-216
267.638687503,0.979,-0.1895,0.0195,-84.073,-79.019,-97.262,0.0,0.0,0.0,-9315,245,-190
