Time,AccX,AccY,AccZ,AngleX,AngleY,AngleZ
1812.472829138,0.0249,-0.1611,0.9976,-9.157,-1.379,166.251
1812.572829153,0.0239,-0.1611,0.9985,-9.152,-1.379,166.251
1812.672829206,0.0239,-0.1602,0.9985,-9.157,-1.379,166.251
1812.772829314,0.0244,-0.1602,0.998,-9.152,-1.379,166.251
1812.872829421,0.0239,-0.1606,0.9985,-9.152,-1.379,166.251
1812.972829492,0.0239,-0.1611,0.9985,-9.152,-1.379,166.251
1813.072829563,0.0239,-0.1611,0.998,-9.152,-1.379,166.251
1813.172829597,0.0249,-0.1602,0.998,-9.152,-1.379,166.251
1813.272829649,0.0239,-0.1611,0.9985,-9.152,-1.379,166.251
1813.372829739,0.0244,-0.1611,0.9976,-9.152,-1.379,166.251
1813.472829754,0.0239,-0.1602,0.999,-9.152,-1.379,166.251
1813.572829806,0.0244,-0.1611,0.998,-9.152,-1.379,166.251
1813.672829859,0.0254,-0.1592,0.998,-9.152,-1.379,166.251
1813.772829874,0.0239,-0.1611,1.0,-9.152,-1.379,166.251
1813.872829982,0.0239,-0.1616,0.998,-9.157,-1.379,166.251
1813.972829997,0.0244,-0.1616,0.999,-9.157,-1.379,166.251
1814.072830031,0.0234,-0.1616,0.999,-9.157,-1.379,166.251
1814.172830084,0.0254,-0.1592,0.9976,-9.152,-1.384,166.251
1814.272830136,0.0239,-0.1626,1.0,-9.124,-1.373,166.267
1814.372830188,0.0239,-0.1641,1.0024,-9.152,-1.39,166.289
1814.472830222,0.0249,-0.1631,0.9971,-9.19,-1.412,166.3
1814.572830275,0.0259,-0.1602,1.0,-9.19,-1.423,166.317
1814.672830309,0.0249,-0.1577,0.9985,-9.152,-1.428,166.317
1814.772830379,0.0254,-0.1582,0.998,-9.152,-1.428,166.317
1814.87283045,0.0249,-0.1606,0.999,-9.163,-1.428,166.317
1814.972830503,0.0269,-0.1602,0.9995,-9.168,-1.434,166.317
1815.072830574,0.0244,-0.1587,0.998,-9.152,-1.428,166.311
1815.172830645,0.0264,-0.1592,0.9985,-9.152,-1.428,166.311
1815.272830771,0.0259,-0.1592,0.9985,-9.146,-1.434,166.311
1815.372830842,0.0254,-0.1597,0.999,-9.152,-1.434,166.317
1815.472830913,0.0264,-0.1592,0.999,-9.163,-1.45,166.317
1815.572830965,0.0259,-0.1602,0.998,-9.168,-1.45,166.317
1815.672831018,0.0264,-0.1602,1.0,-9.168,-1.45,166.317
1815.772831126,0.0264,-0.1606,0.9985,-9.174,-1.456,166.317
1815.872831234,0.0259,-0.1606,0.9995,-9.174,-1.456,166.317
1815.972831305,0.0254,-0.1611,0.998,-9.185,-1.456,166.317
1816.072831376,0.0259,-0.1597,0.9976,-9.201,-1.461,166.317
1816.172831484,0.0269,-0.1621,0.9985,-9.218,-1.467,166.317
1816.272831517,0.0259,-0.1616,0.999,-9.218,-1.467,166.317
1816.372831588,0.0254,-0.1606,0.9985,-9.212,-1.467,166.317
1816.472831659,0.0273,-0.1572,0.9976,-9.201,-1.472,166.317
1816.572831767,0.0264,-0.1562,1.001,-9.201,-1.467,166.317
1816.672831801,0.0269,-0.1611,1.0034,-9.196,-1.467,166.317
1816.772831835,0.0249,-0.1616,1.0005,-9.212,-1.467,166.317
1816.872831869,0.0264,-0.1582,0.9971,-9.207,-1.467,166.317
1816.972831977,0.0278,-0.1611,1.0,-9.201,-1.472,166.317
1817.072832048,0.0264,-0.1641,1.0,-9.207,-1.472,166.317
1817.172832175,0.0269,-0.1582,0.998,-9.201,-1.472,166.317
1817.272832283,0.0269,-0.1606,0.9995,-9.201,-1.472,166.317
1817.372832391,0.0254,-0.1606,0.9985,-9.185,-1.472,166.317
1817.472832425,0.0264,-0.1621,0.9951,-9.179,-1.467,166.317
1817.572832477,0.0254,-0.1611,0.998,-9.168,-1.467,166.317
1817.672832567,0.0278,-0.1592,1.0,-9.152,-1.472,166.317
1817.772832582,0.0254,-0.1582,0.998,-9.152,-1.467,166.311
1817.872832634,0.0264,-0.1597,0.999,-9.163,-1.467,166.311
1817.972832668,0.0264,-0.1582,0.998,-9.157,-1.467,166.311
1818.072832684,0.0259,-0.1597,0.998,-9.163,-1.467,166.311
1818.172832792,0.0249,-0.1597,0.9995,-9.163,-1.467,166.311
1818.272832844,0.0264,-0.1587,0.998,-9.157,-1.467,166.311
1818.372832934,0.0259,-0.1597,0.998,-9.157,-1.472,166.311
1818.472833042,0.0264,-0.1597,0.998,-9.157,-1.472,166.311
1818.572833113,0.0254,-0.1592,0.998,-9.157,-1.472,166.311
1818.672833221,0.0254,-0.1597,0.9985,-9.157,-1.472,166.311
1818.77283331,0.0264,-0.1597,0.998,-9.152,-1.472,166.311
1818.872833344,0.0264,-0.1602,0.999,-9.152,-1.472,166.311
1818.97283336,0.0259,-0.1597,0.999,-9.146,-1.472,166.311
1819.072833468,0.0259,-0.1597,0.999,-9.146,-1.472,166.311
1819.172833539,0.0269,-0.1602,0.9985,-9.141,-1.478,166.311
1819.272833554,0.0254,-0.1597,0.998,-9.141,-1.478,166.311
1819.372833662,0.0254,-0.1597,0.9985,-9.135,-1.478,166.311
1819.472833696,0.0259,-0.1592,0.9971,-9.135,-1.478,166.311
1819.572833786,0.0254,-0.1597,0.999,-9.135,-1.478,166.311
1819.672833876,0.0264,-0.1602,0.998,-9.13,-1.478,166.311
1819.772833984,0.0264,-0.1606,0.9985,-9.13,-1.478,166.311
1819.872834055,0.0259,-0.1597,0.999,-9.13,-1.478,166.311
1819.972834107,0.0264,-0.1597,0.9995,-9.124,-1.478,166.311
1820.072834178,0.0264,-0.1597,0.998,-9.124,-1.478,166.311
1820.172834286,0.0254,-0.1597,0.9985,-9.124,-1.478,166.311
1820.272834357,0.0259,-0.1602,0.9971,-9.124,-1.478,166.311
1820.372834373,0.0254,-0.1597,0.998,-9.119,-1.478,166.311
1820.472834499,0.0259,-0.1597,0.999,-9.119,-1.478,166.311
1820.572834552,0.0264,-0.1587,0.9985,-9.119,-1.478,166.311
1820.672834642,0.0259,-0.1597,0.9985,-9.119,-1.478,166.311
1820.772834676,0.0264,-0.1602,0.999,-9.119,-1.478,166.311
1820.872834691,0.0264,-0.1592,0.9985,-9.119,-1.478,166.311
1820.972834762,0.0259,-0.1611,0.9985,-9.119,-1.478,166.311
1821.072834833,0.0259,-0.1592,0.999,-9.119,-1.478,166.311
1821.172834904,0.0259,-0.1602,0.9985,-9.119,-1.478,166.311
1821.272834994,0.0259,-0.1606,0.9976,-9.113,-1.478,166.311
1821.372835083,0.0269,-0.1592,0.999,-9.113,-1.478,166.311
1821.472835192,0.0254,-0.1602,0.999,-9.113,-1.483,166.311
1821.572835226,0.0259,-0.1597,0.998,-9.113,-1.483,166.311
1821.672835297,0.0254,-0.1587,0.998,-9.113,-1.483,166.311
1821.772835386,0.0259,-0.1587,0.999,-9.113,-1.483,166.311
1821.872835476,0.0259,-0.1597,0.999,-9.113,-1.483,166.311
1821.97283551,0.0264,-0.1611,0.9985,-9.113,-1.483,166.311
1822.072835526,0.0259,-0.1602,0.999,-9.113,-1.483,166.311
1822.17283556,0.0259,-0.1592,0.9985,-9.113,-1.483,166.311
1822.272835631,0.0264,-0.1602,0.9985,-9.113,-1.483,166.311
1822.372835683,0.0254,-0.1597,0.9976,-9.108,-1.483,166.311
1822.472835736,0.0264,-0.1602,0.999,-9.108,-1.483,166.311
1822.572835825,0.0259,-0.1611,0.9976,-9.108,-1.483,166.311
1822.672835915,0.0254,-0.1592,0.998,-9.108,-1.483,166.311
1822.772836005,0.0259,-0.1597,0.999,-9.108,-1.483,166.311
1822.872836057,0.0269,-0.1597,0.9985,-9.108,-1.483,166.311
1822.972836147,0.0259,-0.1592,0.999,-9.108,-1.483,166.311
1823.072836274,0.0259,-0.1597,0.999,-9.102,-1.483,166.311
1823.1728364,0.0254,-0.1606,0.998,-9.102,-1.483,166.311
1823.272836434,0.0269,-0.1597,0.998,-9.102,-1.483,166.311
1823.37283645,0.0254,-0.1597,0.9985,-9.108,-1.483,166.311
1823.472836521,0.0254,-0.1592,0.9985,-9.108,-1.483,166.311
1823.572836648,0.0254,-0.1602,0.999,-9.108,-1.483,166.311
1823.672836719,0.0259,-0.1597,0.998,-9.108,-1.483,166.311
1823.772836753,0.0259,-0.1602,0.9985,-9.102,-1.483,166.311
1823.872836824,0.0254,-0.1597,0.9985,-9.102,-1.483,166.311
1823.972836932,0.0269,-0.1597,0.998,-9.102,-1.483,166.311
1824.072836966,0.0269,-0.1602,0.9985,-9.108,-1.483,166.311
1824.172837019,0.0259,-0.1602,0.9976,-9.108,-1.483,166.311
1824.27283709,0.0264,-0.1597,0.999,-9.108,-1.483,166.311
1824.373744442,0.0254,-0.1592,0.9985,-9.108,-1.483,166.311
1824.473744532,0.0264,-0.1597,0.9985,-9.108,-1.483,166.311
1824.57374464,0.0264,-0.1592,0.9985,-9.102,-1.483,166.311
1824.673744656,0.0264,-0.1597,0.9985,-9.102,-1.483,166.311
1824.77374469,0.0264,-0.1587,0.998,-9.102,-1.483,166.311
1824.87374478,0.0264,-0.1602,0.999,-9.102,-1.483,166.311
1824.973744832,0.0264,-0.1602,0.9985,-9.102,-1.483,166.311
1825.073744903,0.0254,-0.1592,0.999,-9.102,-1.483,166.311
1825.173744938,0.0254,-0.1592,0.9985,-9.102,-1.483,166.311
1825.273745064,0.0254,-0.1597,0.9985,-9.102,-1.483,166.311
1825.373745117,0.0254,-0.1597,0.9995,-9.102,-1.483,166.311
1825.473745188,0.0259,-0.1592,0.999,-9.102,-1.483,166.311
1825.573745222,0.0259,-0.1602,0.998,-9.102,-1.483,166.311
1825.673745312,0.0264,-0.1602,0.9985,-9.102,-1.483,166.311
1825.773745365,0.0259,-0.1592,0.998,-9.102,-1.483,166.311
1825.873745417,0.0264,-0.1602,0.998,-9.102,-1.483,166.311
1825.973745433,0.0254,-0.1597,0.998,-9.102,-1.478,166.311
1826.073745467,0.0254,-0.1597,0.9976,-9.102,-1.478,166.311
1826.173745501,0.0269,-0.1592,0.9985,-9.102,-1.478,166.311
1826.273745572,0.0273,-0.1597,0.9985,-9.102,-1.478,166.311
1826.373745588,0.0259,-0.1597,0.9985,-9.102,-1.478,166.311
1826.473745604,0.0249,-0.1597,0.999,-9.102,-1.478,166.311
1826.573745638,0.0259,-0.1606,0.9985,-9.102,-1.478,166.311
1826.673745691,0.0259,-0.1587,0.9985,-9.102,-1.478,166.311
1826.77374578,0.0259,-0.1597,0.999,-9.102,-1.478,166.311
1826.873745833,0.0259,-0.1602,0.999,-9.102,-1.478,166.311
1826.973745886,0.0259,-0.1597,0.9971,-9.102,-1.478,166.311
1827.073745901,0.0264,-0.1602,0.998,-9.102,-1.478,166.311
1827.17374601,0.0254,-0.1592,0.9976,-9.102,-1.478,166.311
1827.273746118,0.0259,-0.1602,0.999,-9.102,-1.478,166.311
1827.373746152,0.0259,-0.1602,0.999,-9.102,-1.478,166.311
1827.473746186,0.0259,-0.1602,0.999,-9.102,-1.478,166.311
1827.573746239,0.0259,-0.1602,0.998,-9.102,-1.478,166.311
1827.673746347,0.0259,-0.1602,0.9985,-9.102,-1.478,166.311
1827.773746418,0.0269,-0.1597,0.9985,-9.102,-1.478,166.311
1827.87374649,0.0259,-0.1606,0.9976,-9.102,-1.478,166.311
1827.973746616,0.0264,-0.1597,0.9976,-9.102,-1.478,166.311
1828.073746669,0.0259,-0.1592,0.9976,-9.102,-1.478,166.311
1828.173746759,0.0249,-0.1597,0.9976,-9.102,-1.478,166.311
1828.273746775,0.0249,-0.1597,0.998,-9.102,-1.478,166.311
1828.373746827,0.0254,-0.1597,0.9985,-9.102,-1.478,166.311
1828.473746936,0.0259,-0.1602,0.9971,-9.102,-1.478,166.311
1828.573747044,0.0264,-0.1597,0.9976,-9.102,-1.478,166.311
1828.673747134,0.0254,-0.1587,0.9985,-9.102,-1.478,166.311
1828.773747223,0.0264,-0.1592,0.9976,-9.102,-1.478,166.311
1828.873747258,0.0264,-0.1597,0.998,-9.102,-1.478,166.311
1828.973747292,0.0269,-0.1592,0.9985,-9.102,-1.478,166.311
1829.073747345,0.0264,-0.1597,0.998,-9.102,-1.478,166.311
1829.173747379,0.0249,-0.1597,0.9985,-9.102,-1.478,166.311
1829.273747432,0.0259,-0.1602,0.9985,-9.102,-1.478,166.311
1829.373747484,0.0259,-0.1597,0.9976,-9.102,-1.478,166.311
1829.473747537,0.0259,-0.1592,0.9971,-9.102,-1.478,166.311
1829.573747627,0.0259,-0.1597,0.998,-9.102,-1.478,166.311
1829.673747661,0.0259,-0.1602,0.9976,-9.102,-1.478,166.311
1829.773747677,0.0264,-0.1597,0.998,-9.102,-1.478,166.311
1829.873747785,0.0264,-0.1597,0.998,-9.102,-1.478,166.311
1829.973747875,0.0259,-0.1597,0.9985,-9.102,-1.478,166.311
1830.073747965,0.0254,-0.1597,0.998,-9.102,-1.478,166.311
1830.173747999,0.0254,-0.1597,0.998,-9.102,-1.478,166.311
1830.27374807,0.0264,-0.1602,0.999,-9.102,-1.478,166.311
1830.37374816,0.0259,-0.1606,0.9995,-9.102,-1.478,166.311
1830.473748213,0.0254,-0.1602,0.9995,-9.102,-1.483,166.311
1830.573748247,0.0259,-0.1592,0.9985,-9.102,-1.478,166.311
1830.673748281,0.0254,-0.1592,0.998,-9.102,-1.478,166.311
1830.773748353,0.0264,-0.1606,0.9985,-9.102,-1.478,166.311
1830.873748387,0.0259,-0.1606,0.998,-9.102,-1.478,166.311
1830.973748421,0.0259,-0.1592,0.9976,-9.102,-1.478,166.311
1831.073748437,0.0264,-0.1597,0.998,-9.102,-1.478,166.311
1831.173748545,0.0254,-0.1597,0.999,-9.102,-1.478,166.311
1831.27374858,0.0254,-0.1592,0.9985,-9.102,-1.478,166.311
1831.373748614,0.0259,-0.1597,0.9985,-9.102,-1.478,166.311
1831.473748667,0.0264,-0.1602,0.9985,-9.102,-1.478,166.311
1831.57374872,0.0259,-0.1597,0.999,-9.102,-1.478,166.311
1831.673748735,0.0254,-0.1602,0.9995,-9.102,-1.478,166.311
1831.773748844,0.0264,-0.1592,0.9985,-9.102,-1.478,166.311
1831.873748934,0.0264,-0.1592,0.999,-9.102,-1.478,166.311
1831.973748968,0.0259,-0.1602,0.9985,-9.102,-1.478,166.311
1832.073749039,0.0264,-0.1597,0.9985,-9.102,-1.478,166.311
1832.173749092,0.0234,-0.1592,1.0024,-9.102,-1.478,166.311
1832.273749182,0.0259,-0.1597,0.998,-9.102,-1.478,166.311
1832.373749198,0.0264,-0.1597,0.998,-9.102,-1.478,166.311
1832.47374925,0.0254,-0.1597,0.9985,-9.102,-1.478,166.311
1832.57374934,0.0264,-0.1602,0.9985,-9.102,-1.478,166.311
1832.673749393,0.0269,-0.1602,0.9971,-9.108,-1.478,166.311
1832.773749427,0.0264,-0.1606,0.9976,-9.108,-1.478,166.311
1832.874104445,0.0259,-0.1582,0.9995,-9.108,-1.478,166.311
1832.974104479,0.0254,-0.1592,0.999,-9.108,-1.478,166.311
1833.074104606,0.0259,-0.1602,0.998,-9.108,-1.478,166.311
1833.17410464,0.0254,-0.1602,0.9985,-9.108,-1.478,166.311
1833.27410473,0.0254,-0.1592,0.998,-9.108,-1.478,166.311
1833.374104746,0.0254,-0.1602,0.9985,-9.108,-1.478,166.311
1833.474104836,0.0264,-0.1606,0.9985,-9.108,-1.478,166.311
1833.574104888,0.0264,-0.1597,0.998,-9.108,-1.478,166.311
1833.674104904,0.0264,-0.1602,0.9976,-9.108,-1.478,166.311
1833.77571413,0.0264,-0.1602,0.998,-9.108,-1.478,166.311
1833.875714201,0.0269,-0.1597,0.998,-9.108,-1.478,166.311
1833.975714254,0.0254,-0.1592,0.998,-9.108,-1.478,166.311
1834.075714325,0.0254,-0.1597,0.9985,-9.108,-1.483,166.311
1834.175714378,0.0254,-0.1597,0.999,-9.108,-1.483,166.311
1834.275714413,0.0254,-0.1597,0.998,-9.108,-1.483,166.311
1834.375714465,0.0259,-0.1597,0.999,-9.108,-1.478,166.311
1834.475714481,0.0254,-0.1592,0.998,-9.108,-1.478,166.311
1834.575714534,0.0254,-0.1597,0.998,-9.108,-1.478,166.311
1834.675714661,0.0259,-0.1597,0.998,-9.108,-1.478,166.311
1834.77571477,0.0259,-0.1592,0.998,-9.108,-1.478,166.311
1834.875714859,0.0264,-0.1597,0.9985,-9.108,-1.478,166.311
1834.975714894,0.0264,-0.1606,0.998,-9.108,-1.478,166.311
1835.07571491,0.0259,-0.1606,0.9985,-9.108,-1.478,166.311
1835.175714981,0.0254,-0.1602,0.9985,-9.108,-1.478,166.311
1835.275715071,0.0254,-0.1606,0.999,-9.108,-1.478,166.311
1835.375715124,0.0254,-0.1606,0.998,-9.108,-1.478,166.311
1835.475715177,0.0269,-0.1597,0.999,-9.108,-1.478,166.311
1835.57571523,0.0269,-0.1602,0.998,-9.108,-1.478,166.311
1835.675715301,0.0264,-0.1597,0.9985,-9.108,-1.478,166.311
1835.775715391,0.0259,-0.1597,0.9976,-9.108,-1.478,166.311
1835.875715407,0.0254,-0.1597,0.9971,-9.108,-1.478,166.311
1835.975715497,0.0259,-0.1592,0.9985,-9.108,-1.478,166.311
1836.075715605,0.0254,-0.1602,0.998,-9.108,-1.478,166.311
1836.175715621,0.0259,-0.1606,0.9985,-9.108,-1.478,166.311
1836.275715656,0.0259,-0.1602,0.998,-9.108,-1.478,166.311
1836.375715727,0.0264,-0.1597,0.998,-9.108,-1.478,166.311
1836.475715835,0.0259,-0.1602,0.9985,-9.108,-1.478,166.311
1836.575715907,0.0269,-0.1597,0.999,-9.108,-1.478,166.311
1836.675715997,0.0254,-0.1597,0.998,-9.108,-1.478,166.311
1836.775716105,0.0259,-0.1597,0.998,-9.108,-1.478,166.311
1836.875716121,0.0254,-0.1597,0.9985,-9.108,-1.478,166.311
1836.97571623,0.0264,-0.1592,0.998,-9.108,-1.478,166.311
1837.075716264,0.0259,-0.1592,0.998,-9.108,-1.478,166.311
1837.175716317,0.0259,-0.1597,0.9985,-9.108,-1.478,166.311
1837.275716333,0.0264,-0.1597,0.998,-9.108,-1.478,166.311
1837.375716367,0.0264,-0.1597,0.999,-9.108,-1.478,166.311
1837.47571642,0.0259,-0.1592,0.998,-9.108,-1.478,166.311
1837.57576777,0.0269,-0.1602,0.998,-9.108,-1.478,166.311
1837.675767786,0.0254,-0.1602,0.9985,-9.108,-1.478,166.311
1837.775767876,0.0254,-0.1597,0.9985,-9.108,-1.478,166.311
1837.875767947,0.0264,-0.1597,0.9985,-9.108,-1.478,166.311
1837.975768,0.0264,-0.1597,0.9971,-9.108,-1.478,166.311
1838.076003202,0.0259,-0.1602,0.998,-9.108,-1.478,166.311
1838.176003607,0.0259,-0.1597,0.998,-9.108,-1.478,166.311
1838.276003641,0.0264,-0.1587,0.9985,-9.108,-1.478,166.311
1838.376003768,0.0259,-0.1592,0.9985,-9.108,-1.478,166.311
1838.476003877,0.0264,-0.1602,0.998,-9.108,-1.478,166.311
1838.576003911,0.0259,-0.1597,0.998,-9.108,-1.478,166.311
1838.676003983,0.0249,-0.1592,0.999,-9.102,-1.478,166.311
1838.776004091,0.0239,-0.1597,1.0005,-9.102,-1.478,166.311
1838.876004126,0.0254,-0.1602,0.9976,-9.102,-1.478,166.311
1838.976013271,0.0254,-0.1597,0.998,-9.102,-1.478,166.311
1839.076013287,0.0259,-0.1597,0.999,-9.102,-1.478,166.311
1839.176013377,0.0259,-0.1602,0.9985,-9.102,-1.478,166.311
1839.276013393,0.0264,-0.1602,0.999,-9.102,-1.478,166.311
1839.376013465,0.0264,-0.1597,0.9961,-9.108,-1.478,166.311
1839.476013481,0.0288,-0.1611,0.9941,-9.108,-1.478,166.311
1839.576013571,0.0269,-0.1606,0.9961,-9.108,-1.478,166.311
1839.676013661,0.0249,-0.1597,0.999,-9.108,-1.478,166.311
1839.776013677,0.0264,-0.1597,0.9985,-9.102,-1.478,166.311
1839.876013748,0.0254,-0.1602,0.999,-9.102,-1.478,166.311
1839.976013875,0.0249,-0.1602,0.9985,-9.102,-1.472,166.311
1840.076013891,0.0254,-0.1602,0.9976,-9.102,-1.472,166.311
1840.176014,0.0376,-0.1606,0.9902,-9.108,-1.478,166.311
1840.276014108,0.0298,-0.1582,0.9956,-9.102,-1.478,166.311
1840.37601418,0.0259,-0.1597,0.9995,-9.102,-1.478,166.311
1840.47601427,0.0264,-0.1602,0.9966,-9.102,-1.483,166.311
1840.576014397,0.0249,-0.1592,0.9985,-9.102,-1.478,166.311
1840.676014487,0.0264,-0.1592,0.9976,-9.102,-1.478,166.311
1840.776014614,0.0254,-0.1597,0.9995,-9.102,-1.478,166.311
1840.876014723,0.0269,-0.1606,0.9985,-9.102,-1.483,166.311
1840.976014739,0.0273,-0.1592,0.9961,-9.108,-1.489,166.317
1841.076014829,0.0254,-0.1582,0.9985,-9.102,-1.489,166.317
1841.176014919,0.0269,-0.1597,0.9976,-9.108,-1.489,166.317
1841.276015009,0.0269,-0.1602,0.9976,-9.108,-1.489,166.317
1841.376015117,0.0259,-0.1597,0.9976,-9.108,-1.489,166.317
1841.476015208,0.0181,-0.1621,1.0063,-9.108,-1.489,166.317
1841.576015316,0.0269,-0.1621,0.9951,-9.108,-1.489,166.317
1841.676015332,0.0254,-0.1616,0.9976,-9.108,-1.489,166.317
1841.776015422,0.0269,-0.1611,0.998,-9.108,-1.483,166.317
1841.876015438,0.0254,-0.1602,0.9985,-9.108,-1.483,166.317
1841.976015491,0.0259,-0.1602,0.998,-9.108,-1.483,166.317
1842.076015507,0.0239,-0.1602,0.999,-9.108,-1.483,166.317
1842.17601556,0.0259,-0.1606,0.9976,-9.108,-1.483,166.317
1842.276015595,0.0264,-0.1592,0.9985,-9.113,-1.483,166.317
1842.37787397,0.0269,-0.1597,0.998,-9.113,-1.483,166.317
1842.47787406,0.0254,-0.1602,0.999,-9.108,-1.483,166.317
1842.57787415,0.0264,-0.1602,0.9976,-9.108,-1.483,166.317
1842.677874166,0.0264,-0.1602,0.9976,-9.108,-1.483,166.317
1842.777874274,0.0259,-0.1602,0.9995,-9.108,-1.483,166.317
1842.87787429,0.0264,-0.1592,0.9985,-9.108,-1.483,166.317
1842.977874362,0.0264,-0.1606,0.999,-9.108,-1.483,166.317
1843.077874397,0.0259,-0.1606,0.999,-9.113,-1.483,166.317
1843.17787445,0.0264,-0.1597,0.9985,-9.113,-1.483,166.317
1843.27787454,0.0264,-0.1602,0.9985,-9.108,-1.483,166.317
1843.377874574,0.0259,-0.1606,0.9985,-9.108,-1.483,166.317
1843.477874664,0.0259,-0.1597,0.9995,-9.108,-1.483,166.317
1843.577874736,0.0254,-0.1602,0.999,-9.108,-1.483,166.317
1843.677874752,0.0264,-0.1602,0.999,-9.108,-1.483,166.317
1843.777874787,0.0254,-0.1597,0.998,-9.108,-1.483,166.317
1843.877874803,0.0254,-0.1597,0.999,-9.108,-1.483,166.317
1843.977874856,0.0264,-0.1602,0.998,-9.108,-1.483,166.317
1844.077874964,0.0259,-0.1597,0.9985,-9.108,-1.483,166.317
1844.177874999,0.0269,-0.1597,0.998,-9.108,-1.483,166.317
1844.277875126,0.0264,-0.1606,0.9985,-9.108,-1.483,166.317
1844.377875253,0.0259,-0.1597,0.9985,-9.108,-1.483,166.317
1844.477875325,0.0259,-0.1597,0.9985,-9.108,-1.483,166.317
1844.577875397,0.0254,-0.1602,0.9985,-9.108,-1.483,166.317
1844.677875487,0.0259,-0.1602,0.9985,-9.108,-1.483,166.317
1844.777875577,0.0254,-0.1597,0.9985,-9.108,-1.483,166.317
1844.877875667,0.0269,-0.1602,0.998,-9.108,-1.483,166.317
1844.977875702,0.0264,-0.1597,0.998,-9.108,-1.483,166.317
1845.07787581,0.0264,-0.1602,0.9976,-9.108,-1.483,166.317
1845.177875863,0.0254,-0.1602,0.998,-9.108,-1.483,166.317
1845.277875898,0.0259,-0.1597,0.9985,-9.108,-1.483,166.317
1845.377876007,0.0264,-0.1602,0.9985,-9.108,-1.483,166.317
1845.47787606,0.0264,-0.1606,0.998,-9.108,-1.483,166.317
1845.577876094,0.0254,-0.1602,0.9985,-9.113,-1.483,166.317
1845.677876203,0.0259,-0.1602,0.998,-9.113,-1.483,166.317
1845.777876238,0.0264,-0.1606,0.9985,-9.113,-1.478,166.317
1845.877876291,0.0259,-0.1606,0.9985,-9.113,-1.478,166.317
1845.977876418,0.0259,-0.1602,0.998,-9.113,-1.478,166.317
1846.077876471,0.0264,-0.1597,0.998,-9.113,-1.478,166.317
1846.177876524,0.0264,-0.1602,0.9985,-9.113,-1.478,166.317
1846.277876577,0.0259,-0.1597,0.9976,-9.113,-1.478,166.317
1846.377876705,0.0254,-0.1597,0.998,-9.113,-1.478,166.317
1846.477876795,0.0264,-0.1597,0.999,-9.113,-1.478,166.317
1846.577876811,0.0264,-0.1602,0.9985,-9.113,-1.478,166.317
1846.677876938,0.0259,-0.1606,0.9985,-9.113,-1.478,166.317
1846.777876973,0.0264,-0.1602,0.9985,-9.113,-1.478,166.317
1846.877876989,0.0259,-0.1597,0.998,-9.113,-1.478,166.317
1846.977877042,0.0259,-0.1602,0.998,-9.113,-1.478,166.317
1847.077877151,0.0264,-0.1602,0.9971,-9.113,-1.478,166.317
1847.177877204,0.0264,-0.1597,0.9985,-9.113,-1.478,166.317
1847.277877313,0.0264,-0.1597,0.999,-9.113,-1.478,166.317
1847.377877366,0.0264,-0.1597,0.998,-9.113,-1.478,166.317
1847.4778774,0.0254,-0.1597,0.998,-9.113,-1.478,166.317
1847.577877509,0.0254,-0.1592,0.999,-9.113,-1.478,166.317
1847.677877562,0.0254,-0.1597,0.999,-9.113,-1.478,166.317
1847.777877671,0.0264,-0.1592,0.998,-9.113,-1.478,166.317
1847.877877724,0.0264,-0.1597,0.9976,-9.113,-1.478,166.317
1847.977877759,0.0254,-0.1597,0.9985,-9.113,-1.478,166.317
1848.077877794,0.0254,-0.1602,0.9985,-9.113,-1.478,166.317
1848.177877828,0.0259,-0.1602,0.9976,-9.113,-1.478,166.317
1848.277877918,0.0249,-0.1597,0.998,-9.113,-1.478,166.317
1848.377878009,0.0254,-0.1602,0.998,-9.113,-1.478,166.317
1848.477878062,0.0254,-0.1602,0.9976,-9.113,-1.478,166.317
1848.577878115,0.0254,-0.1597,0.999,-9.113,-1.478,166.317
1848.677878242,0.0259,-0.1602,0.9985,-9.113,-1.472,166.317
1848.777878314,0.0264,-0.1597,0.998,-9.113,-1.472,166.317
1848.87787833,0.0264,-0.1597,0.9976,-9.113,-1.472,166.317
1848.97787842,0.0259,-0.1597,0.998,-9.113,-1.472,166.317
1849.077878529,0.0259,-0.1592,0.998,-9.113,-1.472,166.317
1849.177878582,0.0259,-0.1606,0.998,-9.113,-1.472,166.317
1849.277878599,0.0254,-0.1602,0.9985,-9.113,-1.472,166.317
1849.377878615,0.0254,-0.1602,0.998,-9.113,-1.478,166.317
1849.477878705,0.0249,-0.1611,0.999,-9.113,-1.478,166.317
1849.577878758,0.0254,-0.1602,0.9976,-9.113,-1.478,166.317
1849.677878867,0.0259,-0.1597,0.998,-9.113,-1.478,166.317
1849.777878939,0.0264,-0.1597,0.998,-9.113,-1.478,166.317
1849.877878992,0.0259,-0.1597,0.998,-9.113,-1.478,166.317
1849.977879119,0.0259,-0.1602,0.998,-9.113,-1.478,166.317
1850.077879135,0.0259,-0.1597,0.9985,-9.113,-1.478,166.317
1850.177879263,0.0259,-0.1597,0.999,-9.113,-1.478,166.317
1850.27787939,0.0259,-0.1597,0.9985,-9.113,-1.478,166.317
1850.37787948,0.0259,-0.1616,0.998,-9.113,-1.478,166.317
1850.477879589,0.0264,-0.1602,0.998,-9.113,-1.478,166.317
1850.577879642,0.0259,-0.1602,0.9985,-9.113,-1.478,166.317
1850.677879751,0.0269,-0.1597,0.998,-9.113,-1.478,166.317
1850.77787986,0.0264,-0.1592,0.999,-9.113,-1.478,166.317
1850.877879932,0.0259,-0.1597,0.998,-9.113,-1.478,166.317
1850.977880022,0.0259,-0.1597,0.998,-9.113,-1.478,166.317
1851.077880057,0.0269,-0.1602,0.999,-9.113,-1.478,166.317
1851.177880184,0.0259,-0.1602,0.998,-9.113,-1.478,166.317
1851.2778802,0.0259,-0.1597,0.998,-9.113,-1.478,166.317
1851.377880235,0.0259,-0.1606,0.999,-9.113,-1.478,166.317
1851.47788027,0.0249,-0.1597,0.9985,-9.113,-1.478,166.317
1851.577880323,0.0254,-0.1602,0.999,-9.113,-1.478,166.317
1851.677880432,0.0259,-0.1602,0.9985,-9.113,-1.478,166.317
1851.777880559,0.0254,-0.1602,0.998,-9.113,-1.478,166.317
1851.877880631,0.0264,-0.1597,0.9976,-9.113,-1.478,166.317
1851.977880721,0.0269,-0.1602,0.999,-9.113,-1.478,166.317
1852.077880811,0.0259,-0.1597,0.998,-9.113,-1.478,166.317
1852.177880828,0.0264,-0.1611,0.9971,-9.113,-1.478,166.317
1852.277880881,0.0259,-0.1602,0.9971,-9.113,-1.478,166.317
1852.377880916,0.0259,-0.1602,0.998,-9.119,-1.478,166.317
1852.477881043,0.0249,-0.1592,0.9985,-9.119,-1.478,166.317
1852.577881096,0.0259,-0.1602,0.9971,-9.119,-1.478,166.317
1852.677881168,0.0259,-0.1602,0.9985,-9.119,-1.478,166.317
1852.77788124,0.0269,-0.1606,0.9971,-9.119,-1.478,166.317
1852.877881256,0.0269,-0.1606,0.9976,-9.119,-1.478,166.317
1852.97788131,0.0259,-0.1597,0.998,-9.124,-1.478,166.317
1853.0778814,0.0259,-0.1597,0.998,-9.124,-1.478,166.317
1853.177881509,0.0249,-0.1606,0.998,-9.124,-1.478,166.317
1853.277881562,0.0254,-0.1597,0.9966,-9.124,-1.478,166.317
1853.377881652,0.0259,-0.1611,0.999,-9.124,-1.478,166.317
1853.47788178,0.0264,-0.1616,0.9985,-9.119,-1.478,166.317
1853.577881889,0.0264,-0.1602,0.9976,-9.13,-1.472,166.317
1853.677881923,0.0254,-0.1602,0.9985,-9.135,-1.472,166.317
1853.777882032,0.0254,-0.1606,0.9976,-9.135,-1.467,166.317
1853.877882104,0.0259,-0.1597,0.9985,-9.135,-1.467,166.317
1853.977882139,0.0273,-0.1577,0.9976,-9.135,-1.472,166.317
1854.077882211,0.0254,-0.1592,0.998,-9.141,-1.472,166.311
1854.17788232,0.0254,-0.1602,0.9985,-9.141,-1.472,166.311
1854.277882428,0.0264,-0.1592,0.9971,-9.141,-1.472,166.311
1854.3778825,0.0264,-0.1587,0.9976,-9.141,-1.472,166.311
1854.477882554,0.0264,-0.1592,0.9976,-9.135,-1.472,166.311
1854.577882662,0.0264,-0.1602,0.9971,-9.135,-1.472,166.311
1854.677882716,0.0269,-0.1602,0.9985,-9.135,-1.472,166.311
1854.777882769,0.0259,-0.1597,0.9971,-9.135,-1.472,166.311
1854.877882878,0.0264,-0.1602,0.9976,-9.135,-1.472,166.311
1854.97788295,0.0259,-0.1592,0.998,-9.135,-1.472,166.311
1855.07788304,0.0259,-0.1597,0.998,-9.135,-1.472,166.311
1855.177883075,0.0264,-0.1597,0.9966,-9.13,-1.472,166.311
1855.277883128,0.0264,-0.1597,0.998,-9.13,-1.472,166.311
1855.377883219,0.0254,-0.1606,0.9971,-9.13,-1.472,166.311
1855.477883254,0.0264,-0.1602,0.998,-9.13,-1.472,166.311
1855.577883362,0.0259,-0.1602,0.998,-9.13,-1.472,166.311
1855.677883434,0.0264,-0.1597,0.9976,-9.13,-1.472,166.311
1855.777883543,0.0269,-0.1597,0.998,-9.124,-1.472,166.311
1855.87788356,0.0249,-0.1606,0.998,-9.124,-1.478,166.311
1855.977883576,0.0264,-0.1597,0.9985,-9.124,-1.478,166.311
1856.077883611,0.0264,-0.1597,0.998,-9.124,-1.478,166.311
1856.17788372,0.0254,-0.1592,0.9995,-9.124,-1.478,166.311
1856.27788381,0.0259,-0.1602,0.9985,-9.124,-1.478,166.311
1856.377883882,0.0259,-0.1592,0.9976,-9.124,-1.478,166.311
1856.477883917,0.0264,-0.1602,0.9985,-9.124,-1.478,166.311
1856.577883933,0.0259,-0.1602,0.998,-9.124,-1.478,166.311
1856.677883949,0.0269,-0.1611,0.998,-9.124,-1.478,166.311
1856.77788404,0.0269,-0.1592,0.9976,-9.119,-1.478,166.311
1856.877884075,0.0259,-0.1597,0.998,-9.119,-1.478,166.311
1856.977884128,0.0259,-0.1592,0.9971,-9.119,-1.478,166.311
1857.077884181,0.0264,-0.1597,0.9985,-9.119,-1.478,166.311
1857.17788429,0.0264,-0.1592,0.9985,-9.119,-1.483,166.311
1857.277884325,0.0264,-0.1582,0.9971,-9.119,-1.483,166.311
1857.377884342,0.0259,-0.1602,0.998,-9.119,-1.483,166.311
1857.477884432,0.0269,-0.1597,0.998,-9.119,-1.483,166.311
1857.577884541,0.0264,-0.1597,0.998,-9.119,-1.483,166.311
1857.67788465,0.0254,-0.1602,0.9985,-9.119,-1.483,166.311
1857.777884759,0.0259,-0.1602,0.9985,-9.113,-1.483,166.311
1857.877884812,0.0259,-0.1602,0.998,-9.113,-1.483,166.311
1857.977884866,0.0259,-0.1602,0.9985,-9.113,-1.483,166.311
1858.0778849,0.0259,-0.1602,0.9985,-9.113,-1.483,166.311
1858.177884954,0.0264,-0.1592,0.9976,-9.113,-1.489,166.311
1858.277885026,0.0269,-0.1592,0.9976,-9.113,-1.489,166.311
1858.377885135,0.0259,-0.1587,0.9976,-9.113,-1.489,166.311
1858.477885262,0.0264,-0.1597,0.998,-9.113,-1.489,166.311
1858.577885371,0.0264,-0.1602,0.999,-9.113,-1.489,166.311
1858.677885425,0.0259,-0.1597,0.999,-9.108,-1.489,166.311
1858.777885478,0.0264,-0.1602,0.9995,-9.108,-1.489,166.311
1858.87788555,0.0254,-0.1602,0.999,-9.108,-1.489,166.311
1858.977885603,0.0264,-0.1592,0.998,-9.108,-1.489,166.311
1859.07788562,0.0259,-0.1611,0.999,-9.108,-1.489,166.311
1859.17788571,0.0254,-0.1597,0.998,-9.108,-1.489,166.311
1859.277885745,0.0264,-0.1592,0.998,-9.108,-1.489,166.311
1859.377885799,0.0269,-0.1597,0.998,-9.108,-1.489,166.311
1859.477885852,0.0269,-0.1592,0.9976,-9.108,-1.489,166.311
1859.577885961,0.0264,-0.1602,0.998,-9.108,-1.489,166.311
1859.677885996,0.0259,-0.1597,0.9976,-9.108,-1.489,166.311
1859.777886012,0.0259,-0.1597,0.9985,-9.108,-1.489,166.311
1859.877886029,0.0264,-0.1602,0.998,-9.108,-1.489,166.311
1859.977886045,0.0254,-0.1597,0.998,-9.108,-1.489,166.311
1860.077886117,0.0259,-0.1602,0.999,-9.108,-1.489,166.311
1860.177886133,0.0269,-0.1602,0.998,-9.108,-1.489,166.311
1860.27788615,0.0259,-0.1592,0.9985,-9.108,-1.489,166.311
1860.377886166,0.0264,-0.1592,0.9971,-9.108,-1.489,166.311
1860.477886183,0.0273,-0.1597,0.9976,-9.108,-1.489,166.311
1860.577886292,0.0264,-0.1597,0.9971,-9.108,-1.489,166.311
1860.677886345,0.0254,-0.1602,0.998,-9.102,-1.489,166.311
1860.777886436,0.0264,-0.1602,0.998,-9.102,-1.489,166.311
1860.877886452,0.0259,-0.1592,0.998,-9.108,-1.489,166.311
1860.977886468,0.0264,-0.1597,0.998,-9.108,-1.489,166.311
1861.077886577,0.0259,-0.1606,0.9985,-9.108,-1.489,166.311
1861.178251206,0.0264,-0.1587,0.998,-9.108,-1.489,166.311
1861.27825126,0.0269,-0.1602,0.998,-9.108,-1.489,166.311
1861.378269258,0.0259,-0.1592,0.9985,-9.108,-1.489,166.311
1861.478269293,0.0259,-0.1602,0.998,-9.108,-1.489,166.311
1861.578269383,0.0259,-0.1597,0.999,-9.108,-1.489,166.311
1861.678269492,0.0259,-0.1602,0.999,-9.108,-1.489,166.311
1861.778269546,0.0259,-0.1602,0.9985,-9.108,-1.489,166.311
1861.878269618,0.0254,-0.1606,0.999,-9.108,-1.489,166.311
1861.978269708,0.0259,-0.1602,0.9985,-9.108,-1.489,166.311
1862.07826978,0.0259,-0.1602,0.9985,-9.108,-1.489,166.311
1862.180010136,0.0264,-0.1597,0.9985,-9.108,-1.489,166.311
1862.280010245,0.0264,-0.1602,0.999,-9.108,-1.489,166.311
1862.380010262,0.0264,-0.1597,0.998,-9.108,-1.489,166.311
1862.480010334,0.0264,-0.1597,0.9971,-9.108,-1.489,166.311
1862.580010406,0.0254,-0.1597,0.998,-9.108,-1.489,166.311
1862.680010497,0.0264,-0.1597,0.999,-9.108,-1.489,166.311
1862.78001055,0.0254,-0.1597,0.998,-9.108,-1.489,166.311
1862.880010585,0.0269,-0.1602,0.998,-9.108,-1.489,166.311
1862.980010676,0.0264,-0.1597,0.998,-9.108,-1.489,166.311
1863.080010729,0.0254,-0.1602,0.998,-9.108,-1.489,166.311
1863.180010801,0.0249,-0.1597,0.9985,-9.108,-1.489,166.311
1863.280010892,0.0259,-0.1597,0.9976,-9.108,-1.489,166.311
1863.380010908,0.0259,-0.1602,0.9976,-9.108,-1.489,166.311
1863.480011036,0.0264,-0.1597,0.9976,-9.108,-1.489,166.311
1863.580011071,0.0259,-0.1602,0.9976,-9.108,-1.489,166.311
1863.680011106,0.0259,-0.1602,0.9976,-9.108,-1.489,166.311
1863.780011122,0.0259,-0.1587,0.998,-9.108,-1.489,166.311
1863.880490011,0.0259,-0.1602,0.9985,-9.108,-1.489,166.311
1863.98049012,0.0259,-0.1606,0.998,-9.108,-1.489,166.311
1864.08049021,0.0264,-0.1597,0.999,-9.108,-1.489,166.311
1864.180490338,0.0259,-0.1597,0.9985,-9.108,-1.489,166.311
1864.280490373,0.0269,-0.1597,0.998,-9.108,-1.489,166.311
1864.380490445,0.0259,-0.1592,0.9976,-9.108,-1.489,166.311
1864.480490536,0.0259,-0.1597,0.998,-9.108,-1.489,166.311
1864.581941113,0.0264,-0.1602,0.9995,-9.108,-1.489,166.311
1864.681941148,0.0259,-0.1602,0.998,-9.108,-1.489,166.311
1864.781941183,0.0254,-0.1602,0.9976,-9.108,-1.489,166.311
1864.881941274,0.0259,-0.1597,0.999,-9.108,-1.489,166.311
1864.981941346,0.0264,-0.1606,0.998,-9.108,-1.489,166.311
1865.081941362,0.0259,-0.1592,0.9985,-9.108,-1.489,166.311
1865.18194149,0.0278,-0.1602,0.9976,-9.108,-1.489,166.311
1865.281941543,0.0264,-0.1597,0.9976,-9.108,-1.489,166.311
1865.381941615,0.0259,-0.1597,0.9985,-9.108,-1.494,166.311
1865.481941669,0.0264,-0.1592,0.9976,-9.108,-1.494,166.311
1865.581941797,0.0259,-0.1592,0.999,-9.108,-1.494,166.311
1865.681941813,0.0264,-0.1597,0.9985,-9.108,-1.494,166.311
1865.781941922,0.0269,-0.1606,0.998,-9.108,-1.494,166.311
1865.881942013,0.0259,-0.1602,0.999,-9.108,-1.494,166.311
1865.981942048,0.0264,-0.1597,0.998,-9.108,-1.494,166.311
1866.081942139,0.0264,-0.1592,0.9976,-9.113,-1.489,166.311
1866.181942211,0.0259,-0.1597,0.9985,-9.113,-1.489,166.311
1866.281942283,0.0264,-0.1597,0.9976,-9.113,-1.489,166.311
1866.381942392,0.0264,-0.1602,0.998,-9.113,-1.489,166.311
1866.481942464,0.0254,-0.1602,0.998,-9.113,-1.489,166.311
1866.581942499,0.0264,-0.1602,0.9985,-9.113,-1.489,166.311
1866.681942571,0.0264,-0.1602,0.998,-9.113,-1.489,166.311
1866.781942588,0.0264,-0.1606,0.9976,-9.113,-1.489,166.311
1866.882659699,0.0269,-0.1606,0.998,-9.113,-1.489,166.311
1866.982659772,0.0269,-0.1602,0.9985,-9.113,-1.494,166.311
1867.083105475,0.0264,-0.1602,0.998,-9.113,-1.494,166.311
1867.183105528,0.0264,-0.1611,0.9985,-9.113,-1.494,166.311
1867.283105638,0.0269,-0.1597,0.9985,-9.113,-1.494,166.311
1867.383105728,0.0264,-0.1602,0.9976,-9.113,-1.489,166.311
1867.483105837,0.0269,-0.1602,0.9976,-9.113,-1.489,166.311
1867.58310591,0.0259,-0.1606,0.9985,-9.113,-1.489,166.311
1867.683105945,0.0322,-0.1636,0.9907,-9.113,-1.489,166.311
1867.783106035,0.0259,-0.1597,1.001,-9.113,-1.489,166.311
1867.88310607,0.0264,-0.1602,0.999,-9.113,-1.489,166.311
1867.983106179,0.0254,-0.1602,0.999,-9.113,-1.489,166.311
1868.083106215,0.0264,-0.1606,0.9976,-9.113,-1.489,166.311
1868.183106231,0.0259,-0.1592,0.9976,-9.113,-1.489,166.311
1868.283106266,0.0264,-0.1602,0.998,-9.113,-1.489,166.311
1868.383832952,0.0259,-0.1606,0.9976,-9.113,-1.489,166.311
1868.48383308,0.0259,-0.1606,0.998,-9.119,-1.489,166.311
1868.583833171,0.0205,-0.1597,1.0034,-9.119,-1.489,166.311
1868.683833298,0.0269,-0.1611,0.9966,-9.113,-1.483,166.311
1868.784071575,0.0264,-0.1597,0.9985,-9.113,-1.483,166.311
1868.884071629,0.0264,-0.1597,0.9971,-9.113,-1.489,166.311
1868.984903333,0.0259,-0.1602,0.9976,-9.113,-1.489,166.311
1869.08800338,0.0259,-0.1606,0.9985,-9.113,-1.489,166.311
1869.188003396,0.0259,-0.1597,0.9985,-9.113,-1.483,166.311
1869.288003413,0.0283,-0.1602,0.9985,-9.113,-1.483,166.311
1869.388008226,0.0264,-0.1602,0.998,-9.113,-1.483,166.311
1869.488046354,0.0264,-0.1597,0.998,-9.113,-1.483,166.311
1869.588046463,0.0264,-0.1597,0.9976,-9.113,-1.483,166.311
1869.688046554,0.0264,-0.1597,0.9985,-9.119,-1.489,166.311
1869.788046607,0.0264,-0.1606,0.998,-9.119,-1.489,166.311
1869.888046698,0.0273,-0.1592,0.998,-9.108,-1.489,166.311
1869.98804677,0.0264,-0.1577,0.9971,-9.113,-1.478,166.311
1870.088046824,0.0264,-0.1606,0.998,-9.119,-1.472,166.311
1870.188046878,0.0254,-0.1597,0.9976,-9.119,-1.472,166.311
1870.288046968,0.0264,-0.1616,0.9971,-9.141,-1.461,166.306
1870.388047077,0.0244,-0.1611,0.9976,-9.152,-1.456,166.306
1870.488047168,0.0254,-0.1616,0.9966,-9.157,-1.45,166.306
1870.58804724,0.0249,-0.1616,0.9956,-9.157,-1.445,166.306
1870.68804735,0.0273,-0.1616,0.9956,-9.168,-1.445,166.306
1870.788047477,0.0269,-0.1592,0.9985,-9.168,-1.445,166.306
1870.888047512,0.0269,-0.1636,0.9961,-9.168,-1.439,166.306
1870.988047529,0.0249,-0.1592,0.998,-9.174,-1.434,166.306
1871.088047601,0.0249,-0.1621,0.9971,-9.179,-1.434,166.306
1871.188047692,0.0244,-0.1621,0.9985,-9.179,-1.428,166.3
1871.288047709,0.0269,-0.1626,0.9956,-9.179,-1.428,166.3
1871.388047744,0.0283,-0.1606,0.9946,-9.179,-1.428,166.3
1871.488047816,0.0249,-0.1621,0.9985,-9.185,-1.423,166.3
1871.58804787,0.0249,-0.1606,0.998,-9.185,-1.423,166.3
1871.688047997,0.0259,-0.1611,0.9971,-9.185,-1.423,166.3
1871.788048107,0.0249,-0.1602,0.9976,-9.19,-1.423,166.3
1871.88804816,0.0244,-0.1592,0.998,-9.19,-1.423,166.3
1871.988048251,0.0244,-0.1655,0.9961,-9.212,-1.412,166.3
1872.088048323,0.0312,-0.1626,0.9912,-9.212,-1.412,166.3
1872.188048377,0.0239,-0.1626,0.9976,-9.201,-1.412,166.3
1872.288048486,0.0239,-0.1631,0.9971,-9.201,-1.417,166.3
1872.388048503,0.0249,-0.1621,0.9976,-9.201,-1.417,166.3
1872.488048557,0.0225,-0.1606,0.999,-9.201,-1.417,166.3
1872.588048666,0.0254,-0.1621,0.9956,-9.196,-1.417,166.3
1872.688048738,0.0259,-0.1587,0.9932,-9.196,-1.423,166.306
1872.788048755,0.0229,-0.1611,0.9985,-9.196,-1.423,166.306
1872.888048808,0.0259,-0.1611,0.9966,-9.179,-1.423,166.306
1872.988048899,0.0234,-0.1616,0.998,-9.146,-1.423,166.306
1873.088049027,0.0239,-0.1582,0.9985,-9.102,-1.423,166.306
1873.188049062,0.0225,-0.1587,0.9995,-9.091,-1.423,166.306
1873.288049097,0.0273,-0.1606,0.9927,-9.102,-1.428,166.306
1873.388049169,0.0225,-0.1611,0.999,-9.108,-1.423,166.306
1873.488049223,0.0259,-0.1582,0.9985,-9.097,-1.417,166.306
1873.588049332,0.0254,-0.1587,0.9966,-9.102,-1.417,166.306
1873.688049423,0.0239,-0.1597,0.998,-9.124,-1.412,166.306
1873.788049533,0.0239,-0.1611,0.9976,-9.135,-1.412,166.306
1873.888049605,0.0269,-0.1616,0.9951,-9.141,-1.412,166.306
1873.988049714,0.0244,-0.1611,0.9976,-9.141,-1.412,166.306
1874.088049768,0.0239,-0.1606,0.9985,-9.141,-1.412,166.306
1874.188049822,0.0239,-0.1606,0.9985,-9.135,-1.417,166.306
1874.288049949,0.0249,-0.1606,0.998,-9.135,-1.412,166.306
1874.388050059,0.0239,-0.1606,0.998,-9.141,-1.417,166.306
1874.488050131,0.0244,-0.1602,0.999,-9.141,-1.412,166.306
1874.588050185,0.0239,-0.1606,0.9971,-9.141,-1.417,166.306
1874.688050257,0.0244,-0.1606,0.998,-9.141,-1.412,166.306
1874.788050274,0.0239,-0.1606,0.998,-9.141,-1.412,166.306
1874.88805029,0.0244,-0.1611,0.998,-9.141,-1.412,166.306
1874.988050307,0.0249,-0.1602,0.9971,-9.141,-1.412,166.306
1875.088050361,0.0244,-0.1602,0.9976,-9.141,-1.406,166.306
1875.188050396,0.0244,-0.1606,0.9971,-9.141,-1.406,166.306
1875.288050413,0.0249,-0.1606,0.998,-9.146,-1.406,166.306
1875.388050522,0.0244,-0.1602,0.9976,-9.146,-1.406,166.306
1875.488050539,0.0234,-0.1606,0.9976,-9.146,-1.406,166.306
1875.588050648,0.0239,-0.1597,0.998,-9.146,-1.401,166.306
1875.688050702,0.0239,-0.1606,0.9976,-9.146,-1.401,166.306
1875.788050811,0.0249,-0.1602,0.9971,-9.146,-1.401,166.306
1875.88805092,0.0244,-0.1602,0.998,-9.146,-1.401,166.306
1875.988050937,0.0244,-0.1602,0.9976,-9.146,-1.401,166.311
1876.088051028,0.0249,-0.1602,0.9985,-9.146,-1.401,166.311
1876.188051082,0.0239,-0.1606,0.999,-9.146,-1.401,166.311
1876.288051098,0.0249,-0.1621,0.9966,-9.146,-1.401,166.311
1876.388051208,0.0239,-0.1611,0.9985,-9.146,-1.401,166.311
1876.48805128,0.0249,-0.1611,0.9976,-9.146,-1.395,166.311
1876.588051334,0.0234,-0.1611,0.9976,-9.146,-1.395,166.311
1876.688051406,0.0244,-0.1602,0.998,-9.146,-1.395,166.311
1876.788051534,0.0244,-0.1606,0.998,-9.146,-1.395,166.311
1876.888051551,0.0249,-0.1602,0.998,-9.146,-1.395,166.311
1876.988051605,0.0244,-0.1611,0.9966,-9.146,-1.395,166.311
1877.088051695,0.0239,-0.1606,0.9985,-9.146,-1.395,166.311
1877.188051768,0.0244,-0.1602,0.998,-9.146,-1.395,166.311
1877.288051784,0.0244,-0.1611,0.998,-9.146,-1.395,166.311
1877.38805182,0.0244,-0.1616,0.998,-9.146,-1.395,166.311
1877.488051948,0.0239,-0.1606,0.9966,-9.146,-1.395,166.311
1877.588051983,0.0244,-0.1606,0.999,-9.146,-1.395,166.311
1877.688052074,0.0244,-0.1602,0.998,-9.146,-1.395,166.311
1877.788052165,0.0239,-0.1606,0.9985,-9.146,-1.395,166.311
1877.888052218,0.0234,-0.1597,0.9976,-9.146,-1.395,166.311
1877.988052328,0.0244,-0.1606,0.9985,-9.146,-1.395,166.311
1878.088052382,0.0239,-0.1602,0.9976,-9.146,-1.39,166.311
1878.188052417,0.0244,-0.1606,0.9971,-9.146,-1.39,166.311
1878.288052434,0.0249,-0.1606,0.998,-9.146,-1.395,166.311
1878.388052469,0.0234,-0.1611,0.9985,-9.146,-1.395,166.311
1878.488052597,0.0239,-0.1611,0.998,-9.146,-1.39,166.311
1878.588052632,0.0254,-0.1602,0.9976,-9.152,-1.39,166.311
1878.688052704,0.0254,-0.1606,0.998,-9.152,-1.39,166.311
1878.788052721,0.0249,-0.1602,0.998,-9.152,-1.39,166.311
1878.888052775,0.0244,-0.1592,0.999,-9.146,-1.39,166.311
1878.988052792,0.0234,-0.1606,0.998,-9.146,-1.39,166.311
1879.088052846,0.0249,-0.1611,0.9976,-9.146,-1.39,166.311
1879.188052937,0.0234,-0.1602,0.9976,-9.146,-1.39,166.311
1879.288052972,0.0239,-0.1602,0.9976,-9.146,-1.39,166.311
1879.3880531,0.0234,-0.1611,0.9985,-9.146,-1.39,166.311
1879.488053228,0.0234,-0.1606,0.998,-9.152,-1.39,166.311
1879.5880533,0.0244,-0.1606,0.9971,-9.152,-1.39,166.311
1879.688053317,0.0244,-0.1606,0.9985,-9.152,-1.39,166.311
1879.788053445,0.0234,-0.1606,0.998,-9.152,-1.39,166.311
1879.88805348,0.0239,-0.1597,0.9985,-9.152,-1.39,166.311
1879.988053552,0.0244,-0.1611,0.998,-9.152,-1.39,166.311
1880.088053588,0.0269,-0.1611,0.9951,-9.152,-1.39,166.311
1880.188053679,0.0215,-0.1587,1.0024,-9.152,-1.39,166.311
1880.28805377,0.0259,-0.1606,0.9961,-9.152,-1.39,166.311
1880.38805386,0.0244,-0.1602,0.9976,-9.152,-1.39,166.311
1880.488053914,0.0254,-0.1611,0.9976,-9.152,-1.39,166.311
1880.588054005,0.0244,-0.1602,0.999,-9.152,-1.39,166.311
1880.688054078,0.0239,-0.1606,0.9976,-9.152,-1.39,166.311
1880.788054187,0.0239,-0.1606,0.999,-9.152,-1.39,166.311
1880.888054259,0.0229,-0.1606,0.9976,-9.152,-1.39,166.311
1880.988054276,0.0244,-0.1611,0.9976,-9.152,-1.39,166.311
1881.08805433,0.0234,-0.1606,0.9985,-9.152,-1.384,166.311
1881.188054421,0.0244,-0.1602,0.9971,-9.152,-1.384,166.311
1881.28805453,0.0244,-0.1611,0.9971,-9.152,-1.384,166.311
1881.388054584,0.0239,-0.1606,0.998,-9.152,-1.384,166.311
1881.488054657,0.0249,-0.1606,0.999,-9.152,-1.384,166.311
1881.588054692,0.0234,-0.1606,0.998,-9.152,-1.384,166.311
1881.688054764,0.0244,-0.1611,0.998,-9.152,-1.384,166.311
1881.788054818,0.0249,-0.1602,0.998,-9.152,-1.384,166.311
1881.888054891,0.0244,-0.1606,0.9971,-9.152,-1.384,166.311
1881.988055,0.0244,-0.1602,0.998,-9.152,-1.384,166.311
1882.088062332,0.0239,-0.1602,0.9976,-9.152,-1.384,166.311
1882.188062423,0.0249,-0.1597,0.9971,-9.152,-1.384,166.311
1882.288062477,0.0244,-0.1597,0.998,-9.152,-1.384,166.311
1882.388062494,0.0244,-0.1611,0.9985,-9.152,-1.384,166.311
1882.488062547,0.0244,-0.1606,0.9971,-9.152,-1.384,166.311
1882.588062657,0.0249,-0.1606,0.9985,-9.146,-1.384,166.311
1882.688062766,0.0239,-0.1611,0.9976,-9.146,-1.384,166.311
1882.788062783,0.0239,-0.1606,0.998,-9.152,-1.384,166.311
1882.8880628,0.0244,-0.1611,0.998,-9.152,-1.384,166.311
1882.988062854,0.0244,-0.1606,0.9976,-9.152,-1.384,166.311
1883.088062945,0.0244,-0.1602,0.9985,-9.152,-1.384,166.311
1883.188063036,0.0239,-0.1616,0.9985,-9.152,-1.384,166.311
1883.288063145,0.0244,-0.1611,0.9976,-9.152,-1.384,166.311
1883.388063255,0.0234,-0.1606,0.998,-9.152,-1.384,166.311
1883.488063346,0.0249,-0.1606,0.999,-9.152,-1.384,166.311
1883.588063455,0.0249,-0.1597,0.998,-9.152,-1.384,166.311
1883.688063565,0.0244,-0.1611,0.9976,-9.152,-1.384,166.311
1883.788063582,0.0239,-0.1602,0.9976,-9.152,-1.384,166.311
1883.888063673,0.0239,-0.1606,0.998,-9.152,-1.384,166.311
1883.988063763,0.0249,-0.1602,0.9976,-9.152,-1.384,166.311
1884.088063854,0.0239,-0.1597,0.998,-9.152,-1.384,166.311
1884.188063927,0.0249,-0.1597,0.9976,-9.152,-1.384,166.311
1884.288063999,0.0244,-0.1602,0.998,-9.152,-1.384,166.311
1884.388070775,0.0244,-0.1611,0.9985,-9.152,-1.384,166.311
1884.488073533,0.0239,-0.1611,0.998,-9.152,-1.384,166.311
1884.588073624,0.0239,-0.1606,0.9985,-9.152,-1.384,166.311
1884.688073641,0.0249,-0.1611,0.9961,-9.152,-1.384,166.311
1884.788073732,0.0254,-0.1616,0.9966,-9.152,-1.384,166.311
1884.888073842,0.0234,-0.1611,0.9922,-9.152,-1.384,166.311
1884.988073858,0.0239,-0.1606,0.9976,-9.157,-1.384,166.311
1885.088073968,0.0244,-0.1602,0.9985,-9.157,-1.384,166.311
1885.188074077,0.0244,-0.1606,0.9976,-9.157,-1.384,166.311
1885.288074187,0.0234,-0.1611,0.998,-9.157,-1.384,166.311
1885.388074222,0.0254,-0.1606,0.998,-9.152,-1.384,166.311
1885.488074332,0.0249,-0.1597,0.9976,-9.152,-1.384,166.311
1885.588074423,0.0244,-0.1592,0.9985,-9.152,-1.384,166.311
1885.688074551,0.0239,-0.1606,0.9976,-9.152,-1.384,166.311
1885.788074679,0.0239,-0.1606,0.9971,-9.152,-1.384,166.311
1885.888074733,0.02,-0.1606,1.0024,-9.152,-1.384,166.311
1885.988074805,0.0259,-0.1602,0.9966,-9.152,-1.384,166.311
1886.088074822,0.0239,-0.1606,0.9985,-9.152,-1.384,166.311
1886.188076487,0.0244,-0.1611,0.9971,-9.152,-1.384,166.311
1886.28807656,0.0239,-0.1602,0.999,-9.152,-1.384,166.311
1886.388076669,0.0234,-0.1602,0.998,-9.152,-1.384,166.311
1886.488076723,0.0244,-0.1606,0.9976,-9.152,-1.384,166.311
1886.588076796,0.0225,-0.1597,0.999,-9.152,-1.384,166.311
1886.688076905,0.0254,-0.1602,0.9985,-9.152,-1.384,166.311
1886.788082737,0.0239,-0.1597,0.9985,-9.152,-1.384,166.311
1886.888082865,0.0244,-0.1606,0.998,-9.152,-1.384,166.311
1886.988082938,0.0244,-0.1606,0.9985,-9.152,-1.384,166.311
1887.08808301,0.0249,-0.1602,0.9976,-9.152,-1.384,166.311
1887.18808499,0.0249,-0.1611,0.9976,-9.152,-1.384,166.311
1887.288085007,0.0234,-0.1606,0.9976,-9.152,-1.384,166.311
1887.38808508,0.0249,-0.1606,0.9976,-9.152,-1.384,166.311
1887.488085097,0.0244,-0.1606,0.998,-9.152,-1.384,166.311
1887.588085114,0.0239,-0.1602,0.998,-9.152,-1.384,166.311
1887.688085186,0.0234,-0.1611,0.9985,-9.152,-1.384,166.311
1887.788085277,0.0244,-0.1606,0.998,-9.152,-1.384,166.311
1887.888085331,0.0249,-0.1602,0.9976,-9.152,-1.384,166.311
1887.988091237,0.0234,-0.1602,0.9971,-9.152,-1.384,166.311
1888.088091291,0.0249,-0.1606,0.9985,-9.152,-1.384,166.311
1888.188091345,0.0239,-0.1606,0.998,-9.152,-1.384,166.311
1888.288091436,0.0234,-0.1606,0.9985,-9.152,-1.384,166.311
1888.388091453,0.0229,-0.1606,0.999,-9.152,-1.384,166.311
1888.488095785,0.0244,-0.1597,0.998,-9.152,-1.384,166.311
1888.588095802,0.0249,-0.1606,0.9976,-9.152,-1.384,166.311
1888.688095893,0.0244,-0.1606,0.998,-9.152,-1.384,166.311
1888.788095965,0.0249,-0.1602,0.9971,-9.152,-1.384,166.311
1888.888096093,0.0244,-0.1602,0.9971,-9.152,-1.384,166.311
1888.988096147,0.0239,-0.1567,0.9995,-9.152,-1.384,166.311
1889.088096201,0.0259,-0.1597,0.9956,-9.152,-1.384,166.311
1889.188096274,0.0249,-0.1611,0.9966,-9.152,-1.384,166.311
1889.288096402,0.0244,-0.1602,0.9976,-9.152,-1.384,166.311
1889.388096419,0.0234,-0.1602,0.9985,-9.152,-1.384,166.311
1889.488096436,0.0244,-0.1602,0.999,-9.152,-1.384,166.311
1889.58809649,0.0254,-0.1611,0.9961,-9.152,-1.384,166.311
1889.688096563,0.0273,-0.1582,0.9966,-9.152,-1.39,166.311
1889.788096598,0.0239,-0.1602,0.998,-9.152,-1.39,166.311
1889.888096708,0.0249,-0.1616,0.9966,-9.152,-1.39,166.311
1889.988096762,0.0234,-0.1602,1.0005,-9.152,-1.39,166.311
1890.088096816,0.0273,-0.1611,0.9937,-9.146,-1.39,166.311
1890.188096851,0.0239,-0.1602,0.9995,-9.146,-1.395,166.311
1890.288096961,0.0254,-0.1606,0.9971,-9.146,-1.395,166.311
1890.388097052,0.0249,-0.1597,0.9971,-9.146,-1.395,166.311
1890.488097069,0.0244,-0.1602,0.9985,-9.146,-1.401,166.311
1890.588102994,0.0244,-0.1606,0.9976,-9.146,-1.401,166.311
1890.688103122,0.0239,-0.1597,0.9985,-9.146,-1.401,166.311
1890.788103194,0.0371,-0.1636,0.9844,-9.152,-1.395,166.311
1890.888103322,0.0259,-0.1616,0.9966,-9.146,-1.395,166.311
1890.988103376,0.0225,-0.1606,1.0015,-9.146,-1.39,166.311
1891.088103467,0.0254,-0.1611,0.9956,-9.146,-1.384,166.311
1891.188103559,0.0234,-0.1611,0.999,-9.146,-1.384,166.311
1891.288103631,0.0239,-0.1602,0.9971,-9.146,-1.384,166.311
1891.388103759,0.0234,-0.1606,0.999,-9.146,-1.384,166.311
1891.488103776,0.0015,-0.1553,1.0229,-9.146,-1.379,166.311
1891.588107404,0.0254,-0.1606,0.9976,-9.146,-1.379,166.311
1891.68810744,0.0239,-0.1611,0.9971,-9.146,-1.373,166.311
1891.788107476,0.0249,-0.1611,0.998,-9.146,-1.373,166.311
1891.88810753,0.0244,-0.1602,0.9971,-9.146,-1.373,166.311
1891.988107565,0.0249,-0.1606,0.9976,-9.146,-1.373,166.311
1892.088107582,0.0415,-0.1636,0.98,-9.146,-1.373,166.311
1892.188107933,0.0366,-0.1577,0.9951,-9.146,-1.368,166.306
1892.288108005,0.0264,-0.1597,0.9961,-9.141,-1.368,166.306
1892.388108078,0.0234,-0.1636,0.9971,-9.141,-1.373,166.306
1892.488108132,0.0254,-0.1602,0.9971,-9.146,-1.368,166.306
1892.588108149,0.0239,-0.1611,0.998,-9.146,-1.368,166.306
1892.688108222,0.0249,-0.1611,0.9961,-9.146,-1.368,166.306
1892.788108239,0.0254,-0.1602,0.9976,-9.141,-1.362,166.306
1892.888108256,0.0234,-0.1597,0.9966,-9.141,-1.362,166.306
1892.98810831,0.0215,-0.1616,1.0005,-9.141,-1.362,166.306
1893.088108419,0.0259,-0.1606,0.9971,-9.141,-1.362,166.306
1893.188108455,0.0229,-0.1606,0.999,-9.141,-1.357,166.306
1893.288108509,0.0229,-0.1597,0.9995,-9.141,-1.362,166.306
1893.388108563,0.0264,-0.1592,0.9951,-9.141,-1.362,166.306
1893.488108636,0.0254,-0.1611,0.9961,-9.146,-1.362,166.306
1893.588110542,0.0244,-0.1606,0.998,-9.146,-1.362,166.306
1893.688110596,0.0244,-0.1602,0.9971,-9.146,-1.362,166.306
1893.788110687,0.0249,-0.1606,0.998,-9.146,-1.362,166.306
1893.888110778,0.0249,-0.1611,0.9966,-9.146,-1.362,166.306
1893.988110851,0.0249,-0.1611,0.9971,-9.146,-1.362,166.306
1894.088110961,0.0234,-0.1616,0.998,-9.146,-1.362,166.306
1894.188110978,0.0234,-0.1606,0.9985,-9.146,-1.362,166.306
1894.288111032,0.0239,-0.1602,0.9976,-9.146,-1.362,166.306
1894.388111086,0.0244,-0.1611,0.9976,-9.146,-1.362,166.306
1894.488114381,0.0239,-0.1606,0.9985,-9.146,-1.362,166.306
1894.588114453,0.0249,-0.1597,0.9985,-9.146,-1.362,166.306
1894.688114507,0.0244,-0.1606,0.9976,-9.146,-1.368,166.306
1894.788114617,0.021,-0.1567,1.0044,-9.146,-1.368,166.306
1894.888114671,0.0269,-0.1611,0.9946,-9.146,-1.368,166.306
1894.988114762,0.0249,-0.1611,0.9976,-9.146,-1.368,166.306
1895.088114854,0.0239,-0.1602,0.998,-9.146,-1.368,166.306
1895.188114871,0.0244,-0.1606,0.9971,-9.146,-1.368,166.306
1895.288114962,0.0229,-0.1606,0.9985,-9.146,-1.368,166.306
1895.388115016,0.0229,-0.1606,0.998,-9.146,-1.368,166.306
1895.488115107,0.0215,-0.1587,1.0024,-9.146,-1.368,166.306
1895.588115235,0.0391,-0.1675,0.9766,-9.146,-1.368,166.306
1895.688115253,0.0225,-0.1626,0.9985,-9.146,-1.368,166.306
1895.78811527,0.0244,-0.1611,0.998,-9.141,-1.368,166.306
1895.888115305,0.0239,-0.1611,0.9966,-9.141,-1.368,166.306
1895.988115322,0.0234,-0.1602,0.9995,-9.146,-1.368,166.306
1896.088115358,0.0259,-0.1611,0.9961,-9.146,-1.368,166.306
1896.188115449,0.0127,-0.1558,1.0137,-9.141,-1.368,166.306
1896.288115503,0.0273,-0.1602,0.9956,-9.146,-1.368,166.306
1896.388118076,0.0249,-0.1611,0.9966,-9.146,-1.368,166.306
1896.48811813,0.0239,-0.1602,0.999,-9.146,-1.373,166.306
1896.588118221,0.0239,-0.1606,0.9971,-9.146,-1.373,166.306
1896.688118294,0.0264,-0.1611,0.9971,-9.146,-1.373,166.306
1896.788118385,0.0244,-0.1616,0.9976,-9.146,-1.373,166.306
1896.888118477,0.0244,-0.1616,0.9956,-9.146,-1.373,166.306
1896.988118531,0.0229,-0.1606,0.9985,-9.146,-1.373,166.306
1897.088118603,0.0244,-0.1606,0.9971,-9.146,-1.379,166.306
1897.18811862,0.0239,-0.1606,0.998,-9.146,-1.379,166.306
1897.288118656,0.0239,-0.1606,0.9985,-9.146,-1.379,166.306
1897.38811871,0.0303,-0.1641,0.9893,-9.146,-1.379,166.306
1897.488118783,0.0244,-0.1616,0.998,-9.146,-1.379,166.306
1897.588118893,0.0239,-0.1602,0.9976,-9.146,-1.379,166.306
1897.688118928,0.0249,-0.1602,0.998,-9.146,-1.379,166.306
1897.788119001,0.0239,-0.1602,0.9985,-9.146,-1.384,166.306
1897.888119092,0.0239,-0.1606,0.998,-9.152,-1.384,166.306
1897.988119165,0.0239,-0.1602,0.9995,-9.152,-1.384,166.306
1898.088119293,0.0239,-0.1606,0.9976,-9.152,-1.384,166.306
1898.188119385,0.0249,-0.1611,0.9976,-9.152,-1.384,166.306
1898.288119494,0.0244,-0.1606,0.998,-9.152,-1.384,166.306
1898.388119567,0.0254,-0.1602,0.9976,-9.152,-1.384,166.306
1898.488123751,0.0244,-0.1606,0.9976,-9.152,-1.384,166.306
1898.588123879,0.0244,-0.1602,0.9966,-9.152,-1.384,166.306
1898.688132026,0.0244,-0.1611,0.998,-9.152,-1.384,166.306
1898.788132062,0.0244,-0.1611,0.9976,-9.152,-1.384,166.306
1898.888134523,0.0254,-0.1611,0.9971,-9.152,-1.384,166.306
1898.988134614,0.0244,-0.1602,0.998,-9.152,-1.384,166.306
1899.088134687,0.0249,-0.1611,0.9976,-9.152,-1.384,166.306
1899.188134704,0.0244,-0.1606,0.9976,-9.152,-1.384,166.306
1899.28813474,0.0244,-0.1611,0.998,-9.157,-1.384,166.306
1899.388134813,0.0239,-0.1611,0.9976,-9.157,-1.39,166.306
1899.488134848,0.0244,-0.1602,0.999,-9.157,-1.39,166.306
1899.588134884,0.0239,-0.1606,0.998,-9.157,-1.39,166.306
1899.688134994,0.0249,-0.1606,0.9976,-9.157,-1.39,166.306
1899.788135104,0.0249,-0.1611,0.9985,-9.157,-1.39,166.306
1899.888135121,0.0244,-0.1597,0.9976,-9.157,-1.39,166.306
1899.988143471,0.0239,-0.1611,0.9985,-9.157,-1.39,166.306
1900.088143507,0.0244,-0.1602,0.998,-9.157,-1.39,166.306
1900.18814358,0.0244,-0.1606,0.998,-9.157,-1.39,166.306
1900.288144708,0.0234,-0.1602,0.9976,-9.152,-1.39,166.306
1900.388144799,0.0239,-0.1616,0.9976,-9.157,-1.39,166.306
1900.488144891,0.0239,-0.1606,0.998,-9.157,-1.39,166.306
1900.588148778,0.0244,-0.1616,0.998,-9.157,-1.384,166.306
1900.68814887,0.0254,-0.1606,0.998,-9.157,-1.384,166.306
1900.788148905,0.0244,-0.1616,0.9976,-9.157,-1.39,166.306
1900.888148978,0.0244,-0.1602,0.9976,-9.157,-1.39,166.306
1900.988149051,0.0239,-0.1611,0.9976,-9.157,-1.39,166.306
1901.088149105,0.0244,-0.1606,0.9966,-9.157,-1.39,166.306
1901.188149233,0.0249,-0.1602,0.998,-9.157,-1.39,166.306
1901.288153343,0.0239,-0.1616,0.9976,-9.157,-1.39,166.306
1901.388153379,0.0244,-0.1606,0.998,-9.157,-1.39,166.306
1901.488155841,0.0249,-0.1606,0.9976,-9.152,-1.39,166.306
1901.588155895,0.0244,-0.1606,0.9976,-9.152,-1.39,166.306
1901.688155931,0.0239,-0.1611,0.998,-9.152,-1.39,166.306
1901.78815604,0.0239,-0.1606,0.9971,-9.152,-1.39,166.306
1901.888156113,0.0244,-0.1597,0.9976,-9.152,-1.39,166.306
1901.988156149,0.0244,-0.1611,0.9971,-9.152,-1.39,166.306
1902.088156185,0.0244,-0.1602,0.9976,-9.157,-1.39,166.306
1902.188162498,0.0244,-0.1611,0.998,-9.152,-1.39,166.306
1902.288162515,0.0249,-0.1606,0.998,-9.152,-1.39,166.306
1902.388209033,0.0239,-0.1606,0.998,-9.152,-1.39,166.306
1902.488209069,0.0244,-0.1602,0.998,-9.152,-1.39,166.306
1902.588209141,0.0249,-0.1611,0.998,-9.152,-1.39,166.306
1902.688209196,0.0244,-0.1606,0.9976,-9.152,-1.39,166.306
1902.788209231,0.0249,-0.1606,0.9971,-9.152,-1.39,166.306
1902.888209341,0.0234,-0.1606,0.9976,-9.152,-1.39,166.306
1902.988210396,0.0244,-0.1616,0.9976,-9.152,-1.39,166.306
1903.088210413,0.0239,-0.1611,0.9971,-9.152,-1.39,166.306
1903.188210449,0.0244,-0.1611,0.998,-9.157,-1.39,166.306
1903.288210521,0.0239,-0.1611,0.999,-9.157,-1.39,166.306
1903.388210631,0.0249,-0.1606,0.9976,-9.157,-1.39,166.306
1903.48821076,0.0244,-0.1611,0.9976,-9.157,-1.39,166.306
1903.588210795,0.0239,-0.1602,0.9976,-9.157,-1.39,166.306
1903.688210868,0.0239,-0.1611,0.9971,-9.157,-1.39,166.306
1903.788213626,0.0244,-0.1611,0.9976,-9.157,-1.39,166.306
1903.888213643,0.0244,-0.1611,0.9976,-9.157,-1.39,166.306
1903.988213661,0.0244,-0.1606,0.998,-9.157,-1.39,166.306
1904.088218382,0.0239,-0.1611,0.9976,-9.157,-1.39,166.306
1904.188218473,0.0239,-0.1611,0.9976,-9.157,-1.39,166.306
1904.288218509,0.0249,-0.1602,0.9976,-9.157,-1.384,166.306
1904.388218526,0.0249,-0.1606,0.9976,-9.157,-1.384,166.306
1904.488218543,0.0249,-0.1606,0.9976,-9.157,-1.384,166.306
1904.588218857,0.0239,-0.1611,0.9976,-9.157,-1.384,166.306
1904.68821893,0.0239,-0.1616,0.998,-9.157,-1.39,166.306
1904.788218947,0.0239,-0.1611,0.998,-9.157,-1.39,166.306
1904.888218964,0.0234,-0.1606,0.9971,-9.157,-1.384,166.306
1904.988220426,0.0234,-0.1606,0.9971,-9.157,-1.384,166.306
1905.08822048,0.0244,-0.1611,0.9976,-9.163,-1.384,166.306
1905.188220572,0.0239,-0.1602,0.9985,-9.163,-1.384,166.306
1905.288220663,0.0244,-0.1602,0.9976,-9.157,-1.384,166.306
1905.388222291,0.0244,-0.1602,0.9976,-9.157,-1.384,166.306
1905.488228661,0.0244,-0.1602,0.998,-9.157,-1.384,166.306
1905.588228752,0.0244,-0.1606,0.998,-9.157,-1.39,166.306
1905.688228788,0.0244,-0.1606,0.998,-9.157,-1.39,166.306
1905.788228879,0.0244,-0.1606,0.998,-9.157,-1.39,166.306
1905.88822897,0.0239,-0.1606,0.9976,-9.157,-1.39,166.306
1905.988229099,0.0239,-0.1606,0.9976,-9.157,-1.39,166.306
1906.088229209,0.0244,-0.1606,0.9976,-9.157,-1.39,166.306
1906.188229263,0.0239,-0.1606,0.998,-9.157,-1.384,166.306
1906.288229354,0.0239,-0.1606,0.998,-9.157,-1.384,166.306
1906.388229483,0.0239,-0.1606,0.9976,-9.157,-1.384,166.306
1906.4882295,0.0234,-0.1606,0.9976,-9.157,-1.384,166.306
1906.588229592,0.0234,-0.1606,0.9976,-9.157,-1.384,166.306
1906.688229609,0.0239,-0.1611,0.998,-9.157,-1.384,166.306
1906.788229719,0.0249,-0.1597,0.998,-9.157,-1.384,166.306
1906.888229773,0.0249,-0.1597,0.998,-9.157,-1.384,166.306
1906.98822979,0.0239,-0.1616,0.9971,-9.157,-1.384,166.306
1907.0882299,0.0234,-0.1611,0.998,-9.157,-1.384,166.306
1907.188229973,0.0239,-0.1606,0.9985,-9.157,-1.384,166.306
1907.288230065,0.0239,-0.1606,0.9985,-9.157,-1.384,166.306
1907.388230193,0.0239,-0.1606,0.9985,-9.157,-1.384,166.306
1907.488230229,0.0239,-0.1606,0.998,-9.157,-1.384,166.306
1907.588230302,0.0244,-0.1606,0.9976,-9.157,-1.384,166.306
1907.688230393,0.0249,-0.1606,0.9976,-9.157,-1.384,166.306
1907.788230503,0.0244,-0.1597,0.9976,-9.157,-1.384,166.306
1907.888230557,0.0239,-0.1606,0.998,-9.157,-1.39,166.306
1907.988233649,0.0244,-0.1611,0.9976,-9.157,-1.39,166.306
1908.088236944,0.0244,-0.1611,0.9976,-9.157,-1.39,166.306
1908.188237054,0.0244,-0.1611,0.998,-9.157,-1.39,166.306
1908.288237108,0.0249,-0.1606,0.9976,-9.157,-1.384,166.306
1908.388272866,0.0244,-0.1611,0.9985,-9.157,-1.384,166.306
1908.488272921,0.0239,-0.1606,0.998,-9.157,-1.384,166.306
1908.588278457,0.0244,-0.1606,0.998,-9.157,-1.39,166.306
1908.688278474,0.0244,-0.1597,0.998,-9.157,-1.39,166.306
1908.788278602,0.0244,-0.1606,0.9976,-9.152,-1.39,166.306
1908.888278694,0.0244,-0.1602,0.9985,-9.152,-1.39,166.306
1908.988284693,0.0239,-0.1606,0.998,-9.152,-1.39,166.306
1909.08828471,0.0244,-0.1602,0.9985,-9.152,-1.384,166.306
1909.188284839,0.0249,-0.1606,0.9985,-9.152,-1.39,166.306
1909.28828493,0.0244,-0.1611,0.9976,-9.152,-1.39,166.306
1909.388284947,0.0239,-0.1602,0.998,-9.152,-1.39,166.306
1909.488286909,0.0244,-0.1606,0.9985,-9.152,-1.39,166.306
1909.588286964,0.0244,-0.1611,0.998,-9.152,-1.39,166.306
1909.688286981,0.0244,-0.1606,0.998,-9.157,-1.39,166.306
1909.788287054,0.0244,-0.1606,0.9976,-9.157,-1.39,166.306
1909.888291108,0.0244,-0.1606,0.9971,-9.157,-1.39,166.306
1909.988291181,0.0234,-0.1611,0.9976,-9.157,-1.39,166.306
1910.088291236,0.0249,-0.1602,0.9976,-9.157,-1.39,166.306
1910.188291327,0.0244,-0.1602,0.9971,-9.152,-1.39,166.306
1910.2882914,0.0244,-0.1597,0.998,-9.157,-1.39,166.306
1910.38829914,0.0244,-0.1592,0.998,-9.157,-1.39,166.306
1910.488299157,0.0249,-0.1602,0.9985,-9.152,-1.39,166.306
1910.588299174,0.0244,-0.1606,0.9971,-9.152,-1.39,166.306
1910.68829921,0.0244,-0.1606,0.9985,-9.152,-1.39,166.306
1910.788299265,0.0244,-0.1597,0.998,-9.152,-1.39,166.306
1910.888299282,0.0244,-0.1611,0.9976,-9.152,-1.39,166.306
1910.988299318,0.0239,-0.1606,0.9985,-9.152,-1.39,166.306
1911.088303539,0.0239,-0.1616,0.9985,-9.152,-1.39,166.306
1911.188306723,0.0239,-0.1606,0.9985,-9.152,-1.39,166.306
1911.288306814,0.0244,-0.1606,0.998,-9.152,-1.39,166.306
1911.388306887,0.0244,-0.1606,0.998,-9.152,-1.395,166.306
1911.488306997,0.0244,-0.1611,0.998,-9.152,-1.395,166.306
1911.588307052,0.0249,-0.1611,0.998,-9.152,-1.395,166.306
1911.688307125,0.0249,-0.1602,0.9971,-9.152,-1.395,166.306
1911.788307253,0.0249,-0.1611,0.9985,-9.152,-1.395,166.306
1911.888307271,0.0249,-0.1606,0.9985,-9.152,-1.395,166.306
1911.988307381,0.0239,-0.1616,0.9985,-9.152,-1.395,166.306
1912.088351102,0.0244,-0.1606,0.998,-9.152,-1.395,166.306
1912.188351119,0.0239,-0.1602,0.998,-9.152,-1.39,166.306
1912.288351211,0.0186,-0.1621,1.0034,-9.152,-1.395,166.306
1912.388351302,0.0229,-0.1606,0.9995,-9.152,-1.395,166.306
1912.48835132,0.0239,-0.1606,0.9985,-9.152,-1.395,166.306
1912.588351411,0.0239,-0.1602,0.9976,-9.152,-1.39,166.306
1912.688351521,0.0254,-0.1597,0.998,-9.152,-1.39,166.306
1912.788351539,0.0244,-0.1606,0.9971,-9.152,-1.39,166.306
1912.88835526,0.0239,-0.1616,0.9966,-9.152,-1.395,166.306
1912.988355333,0.0186,-0.1582,1.0039,-9.152,-1.39,166.306
1913.088355369,0.0244,-0.1611,0.999,-9.152,-1.39,166.306
1913.188355405,0.0254,-0.1602,0.9976,-9.152,-1.39,166.306
1913.288356163,0.0244,-0.1602,0.998,-9.152,-1.39,166.306
1913.38835618,0.0254,-0.1616,0.9956,-9.152,-1.39,166.306
1913.488356253,0.0444,-0.1685,0.9741,-9.157,-1.384,166.306
1913.588362122,0.0259,-0.1626,0.9937,-9.152,-1.384,166.306
1913.68836214,0.0239,-0.1606,0.999,-9.152,-1.384,166.306
1913.788362954,0.0249,-0.1602,0.9966,-9.152,-1.384,166.306
1913.888363027,0.0234,-0.1602,0.9995,-9.152,-1.384,166.306
1913.9883631,0.0146,-0.1606,1.0054,-9.152,-1.384,166.306
1914.088363228,0.0244,-0.1616,0.999,-9.146,-1.384,166.306
1914.188363283,0.0244,-0.1616,0.9985,-9.152,-1.379,166.306
1914.288363374,0.0264,-0.1597,0.9971,-9.152,-1.379,166.306
1914.388363429,0.0234,-0.1597,0.998,-9.152,-1.379,166.306
1914.488363465,0.0249,-0.1611,0.9971,-9.152,-1.379,166.306
1914.588363556,0.0244,-0.1611,0.9966,-9.152,-1.379,166.306
1914.688363592,0.0249,-0.1602,0.9956,-9.152,-1.379,166.306
1914.788363684,0.0259,-0.1611,0.9946,-9.152,-1.379,166.306
1914.888363738,0.0234,-0.1606,0.9985,-9.152,-1.379,166.306
1914.988363848,0.0244,-0.1592,0.999,-9.152,-1.379,166.306
1915.08836394,0.0234,-0.1606,0.998,-9.152,-1.379,166.3
1915.188363957,0.0239,-0.1606,0.9976,-9.152,-1.379,166.3
1915.288364012,0.0254,-0.1602,0.9976,-9.152,-1.379,166.3
1915.388364103,0.0239,-0.1606,0.998,-9.146,-1.379,166.3
1915.488364213,0.0244,-0.1606,0.998,-9.146,-1.379,166.3
1915.588364249,0.0249,-0.1606,0.9976,-9.146,-1.379,166.306
1915.688364267,0.0244,-0.1592,0.9985,-9.152,-1.379,166.306
1915.788364303,0.0239,-0.1606,0.9985,-9.152,-1.379,166.306
1915.888364376,0.0239,-0.1602,0.9985,-9.152,-1.379,166.306
1915.988364393,0.0239,-0.1606,0.9985,-9.152,-1.379,166.306
1916.088364448,0.0249,-0.1611,0.998,-9.152,-1.379,166.306
1916.188364558,0.0249,-0.1602,0.9985,-9.152,-1.384,166.306
1916.288364612,0.0239,-0.1606,0.9966,-9.152,-1.384,166.3
1916.388364685,0.0239,-0.1611,0.998,-9.152,-1.384,166.3
1916.488364795,0.0239,-0.1611,0.998,-9.152,-1.384,166.3
1916.588364887,0.0244,-0.1602,0.999,-9.152,-1.384,166.3
1916.688364978,0.0234,-0.1606,0.999,-9.152,-1.384,166.3
1916.78836507,0.0239,-0.1611,0.998,-9.152,-1.384,166.3
1916.888365143,0.0254,-0.1597,0.998,-9.152,-1.384,166.3
1916.988365216,0.0244,-0.1602,0.998,-9.152,-1.384,166.3
1917.088365289,0.0239,-0.1606,0.998,-9.152,-1.384,166.3
1917.188365344,0.0239,-0.1606,0.9985,-9.152,-1.384,166.3
1917.288365435,0.0244,-0.1606,0.998,-9.152,-1.384,166.3
1917.388365545,0.0244,-0.1602,0.9971,-9.152,-1.384,166.3
1917.488365637,0.0239,-0.1611,0.998,-9.152,-1.384,166.3
1917.588365691,0.0249,-0.1606,0.9961,-9.152,-1.384,166.3
1917.688371913,0.0244,-0.1606,0.9985,-9.152,-1.384,166.3
1917.788371986,0.0244,-0.1602,0.9985,-9.152,-1.384,166.3
1917.888372077,0.0234,-0.1606,0.998,-9.152,-1.384,166.3
1917.988375854,0.0239,-0.1611,0.999,-9.152,-1.384,166.3
1918.088375945,0.0244,-0.1606,0.9985,-9.152,-1.39,166.3
1918.188376,0.0239,-0.1611,0.9976,-9.152,-1.39,166.3
1918.28837611,0.0254,-0.1606,0.9971,-9.152,-1.39,166.3
1918.388376128,0.0239,-0.1602,0.998,-9.152,-1.39,166.3
1918.488376219,0.0244,-0.1606,0.9976,-9.152,-1.39,166.3
1918.588376311,0.0244,-0.1602,0.998,-9.152,-1.39,166.3
1918.68837781,0.0244,-0.1606,0.9971,-9.152,-1.39,166.3
1918.788377901,0.0234,-0.1611,0.998,-9.152,-1.39,166.3
1918.888378011,0.0244,-0.1616,0.9985,-9.152,-1.39,166.3
1918.988378029,0.0244,-0.1606,0.998,-9.157,-1.39,166.3
1919.088385232,0.0239,-0.1611,0.9976,-9.157,-1.39,166.3
1919.188440249,0.0244,-0.1606,0.998,-9.152,-1.39,166.3
1919.288440304,0.0244,-0.1606,0.9971,-9.152,-1.39,166.3
1919.388440396,0.0249,-0.1606,0.998,-9.152,-1.39,166.3
1919.488444987,0.0244,-0.1611,0.9976,-9.152,-1.39,166.3
1919.588445097,0.0244,-0.1606,0.9976,-9.152,-1.39,166.3
1919.688449041,0.0239,-0.1606,0.9971,-9.152,-1.39,166.3
1919.788450725,0.0239,-0.1602,0.998,-9.157,-1.39,166.3
1919.888450743,0.0249,-0.1606,0.9976,-9.157,-1.39,166.3
1919.988450853,0.0244,-0.1606,0.9976,-9.157,-1.39,166.3
1920.08845087,0.0244,-0.1606,0.9976,-9.157,-1.39,166.3
1920.188456443,0.0244,-0.1602,0.9976,-9.157,-1.39,166.3
1920.288456553,0.0234,-0.1597,0.9976,-9.157,-1.39,166.3
1920.388456664,0.0244,-0.1606,0.9976,-9.157,-1.39,166.3
1920.488456755,0.0249,-0.1602,0.9985,-9.157,-1.39,166.3
1920.588456828,0.0244,-0.1602,0.9976,-9.152,-1.39,166.3
1920.688456938,0.0239,-0.1602,0.998,-9.152,-1.39,166.3
1920.788456956,0.0249,-0.1606,0.9971,-9.152,-1.39,166.3
1920.888457048,0.0244,-0.1611,0.998,-9.157,-1.39,166.3
1920.988457084,0.0244,-0.1606,0.998,-9.157,-1.39,166.3
1921.088463953,0.0234,-0.1616,0.998,-9.157,-1.39,166.3
1921.188463971,0.0244,-0.1616,0.9985,-9.157,-1.384,166.3
1921.288464081,0.0239,-0.1606,0.9976,-9.157,-1.384,166.3
1921.388464098,0.0244,-0.1602,0.9976,-9.157,-1.384,166.3
1921.48846419,0.0249,-0.1602,0.998,-9.157,-1.384,166.3
1921.588464319,0.0244,-0.1611,0.9971,-9.157,-1.39,166.3
1921.68846441,0.0244,-0.1606,0.9971,-9.157,-1.39,166.3
1921.788464465,0.0249,-0.1606,0.998,-9.157,-1.39,166.3
1921.888464501,0.0244,-0.1602,0.9976,-9.157,-1.39,166.3
1921.988464537,0.0244,-0.1606,0.998,-9.157,-1.384,166.3
1922.088465018,0.0244,-0.1606,0.998,-9.157,-1.384,166.3
1922.188465035,0.0244,-0.1606,0.9976,-9.157,-1.384,166.3
1922.288465145,0.0249,-0.1606,0.9976,-9.157,-1.384,166.3
1922.388469959,0.0249,-0.1602,0.9971,-9.157,-1.39,166.3
1922.488470014,0.0244,-0.1606,0.9971,-9.157,-1.39,166.3
1922.588470106,0.0244,-0.1606,0.998,-9.157,-1.39,166.3
1922.688470123,0.0244,-0.1611,0.9985,-9.157,-1.39,166.3
1922.788470233,0.0239,-0.1611,0.9985,-9.152,-1.39,166.3
1922.888470288,0.0244,-0.1606,0.998,-9.152,-1.39,166.3
1922.988470398,0.0239,-0.1606,0.9976,-9.152,-1.39,166.3
1923.08847049,0.0239,-0.1606,0.998,-9.152,-1.39,166.3
1923.188470526,0.0244,-0.1606,0.998,-9.152,-1.39,166.3
1923.288470599,0.0249,-0.1606,0.9976,-9.152,-1.39,166.3
1923.388470635,0.0249,-0.1606,0.9976,-9.152,-1.39,166.3
1923.48847069,0.0244,-0.1606,0.998,-9.152,-1.39,166.3
1923.5884708,0.0244,-0.1602,0.9976,-9.152,-1.39,166.3
1923.688470836,0.0244,-0.1606,0.998,-9.152,-1.39,166.3
1923.788470909,0.0249,-0.1611,0.999,-9.152,-1.39,166.3
1923.888470982,0.0239,-0.1606,0.9971,-9.157,-1.39,166.3
1923.988471074,0.0249,-0.1602,0.999,-9.157,-1.39,166.3
1924.088471129,0.0244,-0.1606,0.9976,-9.157,-1.39,166.3
1924.188471146,0.0244,-0.1602,0.998,-9.157,-1.39,166.3
1924.288471201,0.0244,-0.1606,0.9995,-9.157,-1.39,166.3
1924.388508052,0.0249,-0.1611,0.998,-9.157,-1.39,166.3
1924.488508107,0.0239,-0.1602,0.998,-9.157,-1.39,166.3
1924.588508124,0.0249,-0.1606,0.999,-9.157,-1.39,166.3
1924.688508197,0.0244,-0.1602,0.998,-9.157,-1.39,166.3
1924.788508197,0.0239,-0.1606,0.9976,-9.152,-1.39,166.3
1924.88850827,0.0244,-0.1611,0.998,-9.152,-1.39,166.3
1924.988508398,0.0239,-0.1611,0.9976,-9.157,-1.39,166.3
1925.08850849,0.0244,-0.1606,0.9985,-9.157,-1.39,166.3
1925.1885086,0.0249,-0.1602,0.9976,-9.157,-1.39,166.3
1925.288508711,0.0239,-0.1602,0.9976,-9.157,-1.39,166.3
1925.388508765,0.0244,-0.1611,0.9976,-9.157,-1.39,166.3
1925.488508875,0.0249,-0.1602,0.998,-9.157,-1.39,166.3
1925.588508912,0.0244,-0.1602,0.9985,-9.157,-1.39,166.3
1925.688508929,0.0244,-0.1611,0.9985,-9.157,-1.39,166.3
1925.788508984,0.0239,-0.1606,0.9971,-9.157,-1.39,166.3
1925.888541946,0.0239,-0.1606,0.998,-9.157,-1.39,166.3
1925.988542001,0.0244,-0.1606,0.9985,-9.157,-1.39,166.3
1926.088542074,0.0239,-0.1606,0.9976,-9.157,-1.39,166.3
1926.188542129,0.0239,-0.1606,0.9976,-9.157,-1.39,166.3
1926.288542146,0.0249,-0.1616,0.998,-9.157,-1.39,166.3
1926.388542201,0.0239,-0.1606,0.9976,-9.157,-1.39,166.3
1926.488542219,0.0249,-0.1611,0.9985,-9.157,-1.39,166.3
1926.588612274,0.0239,-0.1602,0.9976,-9.157,-1.39,166.3
1926.68861231,0.0239,-0.1611,0.9976,-9.157,-1.39,166.3
1926.78861242,0.0234,-0.1606,0.999,-9.157,-1.39,166.3
1926.888612549,0.0254,-0.1611,0.9976,-9.157,-1.39,166.3
1926.988612659,0.0234,-0.1602,0.9976,-9.157,-1.39,166.3
1927.088612751,0.0244,-0.1606,0.9976,-9.157,-1.39,166.3
1927.188612805,0.0244,-0.1611,0.9985,-9.157,-1.39,166.3
1927.288612879,0.0244,-0.1611,0.998,-9.157,-1.39,166.3
1927.388613007,0.0249,-0.1611,0.9995,-9.157,-1.39,166.3
1927.488613043,0.0244,-0.1611,0.998,-9.157,-1.39,166.3
1927.588613098,0.0239,-0.1602,0.998,-9.157,-1.39,166.3
1927.688613134,0.0249,-0.1602,0.9985,-9.157,-1.39,166.3
1927.788613245,0.0244,-0.1602,0.9976,-9.157,-1.39,166.3
1927.888613281,0.0244,-0.1597,0.9976,-9.157,-1.39,166.3
1927.988613298,0.0249,-0.1602,0.998,-9.157,-1.39,166.3
1928.088613353,0.0244,-0.1602,0.998,-9.157,-1.39,166.3
1928.188613389,0.0244,-0.1597,0.9985,-9.157,-1.39,166.3
1928.288613407,0.0244,-0.1602,0.9976,-9.152,-1.39,166.3
1928.388613425,0.0234,-0.1606,0.998,-9.152,-1.39,166.3
1928.488613516,0.0244,-0.1606,0.999,-9.152,-1.39,166.3
1928.588613608,0.0239,-0.1611,0.998,-9.152,-1.39,166.3
1928.688613681,0.0244,-0.1597,0.9976,-9.152,-1.39,166.3
1928.788613699,0.0239,-0.1611,0.9985,-9.152,-1.39,166.3
1928.888613809,0.0249,-0.1606,0.9985,-9.152,-1.39,166.3
1928.988613827,0.0239,-0.1606,0.9971,-9.152,-1.39,166.3
1929.088613919,0.0249,-0.1611,0.9971,-9.152,-1.39,166.3
1929.188613974,0.0244,-0.1606,0.998,-9.152,-1.39,166.3
1929.288614047,0.0239,-0.1606,0.9985,-9.152,-1.39,166.3
1929.388614157,0.0239,-0.1611,0.9985,-9.152,-1.39,166.3
1929.488614267,0.0239,-0.1606,0.998,-9.152,-1.39,166.3
1929.588614322,0.0239,-0.1606,0.9995,-9.152,-1.39,166.3
1929.688614395,0.0239,-0.1606,0.9976,-9.152,-1.39,166.3
1929.788614413,0.0239,-0.1616,0.998,-9.152,-1.384,166.3
1929.888614449,0.0244,-0.1602,0.998,-9.152,-1.384,166.3
1929.988614485,0.0254,-0.1592,0.9976,-9.152,-1.384,166.3
1930.088614577,0.0244,-0.1606,0.9985,-9.152,-1.384,166.3
1930.188614595,0.0249,-0.1602,0.9985,-9.152,-1.384,166.3
1930.288614705,0.0244,-0.1606,0.998,-9.152,-1.384,166.3
1930.388614816,0.0244,-0.1611,0.9985,-9.157,-1.384,166.3
1930.488614852,0.0249,-0.1606,0.9985,-9.157,-1.384,166.3
1930.588614944,0.0244,-0.1611,0.9985,-9.157,-1.384,166.3
1930.688615054,0.0244,-0.1606,0.9976,-9.157,-1.384,166.3
1930.788615109,0.0234,-0.1611,0.998,-9.157,-1.384,166.3
1930.888615182,0.0239,-0.1602,0.9976,-9.157,-1.384,166.3
1930.988615292,0.0244,-0.1606,0.9985,-9.157,-1.384,166.3
1931.088615347,0.0249,-0.1621,0.998,-9.157,-1.384,166.3
1931.188615476,0.0239,-0.1602,0.998,-9.157,-1.384,166.3
1931.288615586,0.0239,-0.1606,0.9976,-9.157,-1.384,166.3
1931.388615659,0.0244,-0.1616,0.999,-9.157,-1.384,166.3
1931.48861577,0.0244,-0.1602,0.9971,-9.157,-1.39,166.3
1931.588615787,0.0249,-0.1602,0.998,-9.157,-1.39,166.3
1931.688615898,0.0254,-0.1606,0.9971,-9.157,-1.39,166.3
1931.788616027,0.0244,-0.1606,0.9976,-9.157,-1.39,166.3
1931.888616137,0.0244,-0.1602,0.998,-9.157,-1.39,166.3
1931.988616266,0.0239,-0.1602,0.998,-9.157,-1.39,166.3
1932.088616339,0.0234,-0.1597,0.9971,-9.157,-1.39,166.3
1932.188616431,0.0249,-0.1606,0.999,-9.157,-1.39,166.3
1932.288616541,0.0249,-0.1602,0.9976,-9.152,-1.39,166.3
1932.388616651,0.0239,-0.1606,0.998,-9.152,-1.39,166.3
1932.488616688,0.0254,-0.1611,0.998,-9.152,-1.39,166.3
1932.588616798,0.0244,-0.1606,0.998,-9.157,-1.39,166.3
1932.688616834,0.0239,-0.1602,0.9976,-9.157,-1.39,166.3
1932.788616926,0.0239,-0.1606,0.9985,-9.157,-1.39,166.3
1932.888616999,0.0244,-0.1606,0.9976,-9.152,-1.39,166.3
1932.988617073,0.0244,-0.1611,0.9971,-9.152,-1.39,166.3
1933.088617128,0.0249,-0.1606,0.998,-9.152,-1.39,166.3
1933.188617182,0.0249,-0.1606,0.9985,-9.152,-1.39,166.3
1933.2886172,0.0239,-0.1611,0.9976,-9.152,-1.39,166.3
1933.388617273,0.0244,-0.1602,0.9985,-9.152,-1.39,166.3
1933.488617365,0.0244,-0.1606,0.998,-9.152,-1.39,166.3
1933.588617401,0.0244,-0.1602,0.9985,-9.152,-1.39,166.3
1933.688617493,0.0254,-0.1602,0.9971,-9.152,-1.39,166.3
1933.788617511,0.0239,-0.1602,0.998,-9.152,-1.39,166.3
1933.888617566,0.0249,-0.1606,0.998,-9.152,-1.39,166.3
1933.988617584,0.0244,-0.1606,0.9976,-9.152,-1.39,166.3
1934.088617657,0.0234,-0.1606,0.9976,-9.152,-1.39,166.3
1934.188617786,0.0244,-0.1606,0.9985,-9.152,-1.39,166.3
1934.288617896,0.0239,-0.1606,0.9985,-9.152,-1.39,166.3
1934.38861797,0.0244,-0.1606,0.9976,-9.152,-1.39,166.3
1934.488618061,0.0234,-0.1611,0.998,-9.152,-1.39,166.3
1934.588618153,0.0239,-0.1597,0.9971,-9.152,-1.39,166.3
1934.68861819,0.0234,-0.1606,0.9976,-9.152,-1.39,166.3
1934.788618244,0.0254,-0.1602,0.9966,-9.152,-1.39,166.3
1934.888618262,0.0234,-0.1602,0.998,-9.152,-1.39,166.3
1934.988618317,0.0244,-0.1606,0.9985,-9.152,-1.39,166.3
1935.08861839,0.0239,-0.1606,0.998,-9.152,-1.39,166.3
1935.188618482,0.0234,-0.1611,0.998,-9.152,-1.384,166.3
1935.2886185,0.0244,-0.1602,0.9976,-9.152,-1.384,166.3
1935.388618573,0.0244,-0.1606,0.9985,-9.152,-1.384,166.3
1935.488618684,0.0239,-0.1606,0.9976,-9.152,-1.384,166.3
1935.588618775,0.0244,-0.1611,0.9971,-9.152,-1.384,166.3
1935.68861883,0.0244,-0.1602,0.9985,-9.152,-1.384,166.3
1935.788618904,0.0244,-0.1606,0.9971,-9.152,-1.384,166.3
1935.888619014,0.0244,-0.1606,0.9985,-9.152,-1.384,166.3
1935.988619087,0.0244,-0.1602,0.998,-9.152,-1.384,166.3
1936.088619198,0.0239,-0.1611,0.998,-9.152,-1.384,166.3
1936.188619216,0.0239,-0.1611,0.998,-9.152,-1.384,166.3
1936.288619289,0.0244,-0.1602,0.9976,-9.152,-1.384,166.3
1936.388619381,0.0249,-0.1606,0.9971,-9.152,-1.384,166.3
1936.488619399,0.0254,-0.1602,0.998,-9.152,-1.39,166.3
1936.588619509,0.0249,-0.1602,0.9985,-9.152,-1.39,166.3
1936.688619619,0.0239,-0.1611,0.998,-9.152,-1.39,166.3
1936.788619711,0.0239,-0.1602,0.9995,-9.152,-1.39,166.3
1936.888619711,0.0239,-0.1611,0.998,-9.152,-1.39,166.3
1936.988619728,0.0239,-0.1606,0.9976,-9.152,-1.39,166.3
1937.088619783,0.0239,-0.1611,0.9985,-9.152,-1.39,166.3
1937.188619875,0.0239,-0.1611,0.9976,-9.152,-1.39,166.3
1937.288619893,0.0244,-0.1611,0.9971,-9.152,-1.39,166.3
1937.388619948,0.0244,-0.1602,0.9976,-9.152,-1.39,166.3
1937.488620021,0.0244,-0.1606,0.9985,-9.152,-1.39,166.3
1937.588620076,0.0244,-0.1606,0.9976,-9.152,-1.39,166.3
1937.688620168,0.0244,-0.1606,0.998,-9.152,-1.39,166.3
1937.788620186,0.0244,-0.1606,0.998,-9.152,-1.39,166.3
1937.888620278,0.0244,-0.1606,0.998,-9.157,-1.39,166.3
1937.988620388,0.0239,-0.1602,0.9976,-9.157,-1.39,166.3
1938.088620406,0.0244,-0.1602,0.998,-9.157,-1.39,166.3
1938.188620516,0.0244,-0.1611,0.998,-9.157,-1.39,166.3
1938.28862059,0.0234,-0.1606,0.9976,-9.157,-1.39,166.3
1938.388620719,0.0244,-0.1602,0.9976,-9.157,-1.384,166.3
1938.488620792,0.0249,-0.1602,0.998,-9.157,-1.384,166.3
1938.58862081,0.0244,-0.1606,0.9971,-9.157,-1.384,166.3
1938.688620828,0.0244,-0.1597,0.9976,-9.157,-1.384,166.3
1938.788620938,0.0239,-0.1606,0.9971,-9.157,-1.384,166.3
1938.88862103,0.0239,-0.1606,0.9985,-9.157,-1.384,166.3
1938.988621085,0.0249,-0.1597,0.998,-9.157,-1.384,166.3
1939.088621214,0.0244,-0.1611,0.999,-9.152,-1.384,166.3
1939.188621343,0.0244,-0.1606,0.9976,-9.152,-1.384,166.3
1939.288621398,0.0244,-0.1602,0.9976,-9.157,-1.384,166.3
1939.388621508,0.0244,-0.1611,0.9985,-9.157,-1.384,166.3
1939.488621582,0.0239,-0.1597,0.9971,-9.157,-1.384,166.3
1939.588631507,0.0239,-0.1606,0.998,-9.157,-1.384,166.3
1939.68863158,0.0239,-0.1602,0.9976,-9.157,-1.384,166.3
1939.788631635,0.0234,-0.1606,0.9976,-9.157,-1.384,166.3
1939.888631653,0.0244,-0.1606,0.9976,-9.157,-1.384,166.3
1939.988631745,0.0234,-0.1606,0.9985,-9.157,-1.384,166.3
1940.088631837,0.0249,-0.1597,0.998,-9.157,-1.384,166.3
1940.188631947,0.0254,-0.1606,0.998,-9.152,-1.384,166.3
1940.288632021,0.0249,-0.1602,0.9976,-9.152,-1.384,166.3
1940.388632057,0.0234,-0.1606,0.998,-9.152,-1.384,166.3
1940.488632149,0.0239,-0.1616,0.9971,-9.152,-1.384,166.3
1940.588632185,0.0244,-0.1606,0.9985,-9.157,-1.384,166.3
1940.688632277,0.0249,-0.1602,0.998,-9.157,-1.384,166.3
1940.788632295,0.0244,-0.1602,0.9985,-9.157,-1.384,166.3
1940.888632332,0.0244,-0.1621,0.9976,-9.157,-1.39,166.3
1940.988632405,0.0244,-0.1611,0.9976,-9.157,-1.39,166.3
1941.088632441,0.0249,-0.1606,0.9976,-9.157,-1.39,166.3
1941.188632459,0.0249,-0.1606,0.9976,-9.157,-1.39,166.3
1941.288632551,0.0244,-0.1606,0.9976,-9.157,-1.39,166.3
1941.388632588,0.0239,-0.1602,0.9985,-9.157,-1.39,166.3
1941.488632606,0.0249,-0.1611,0.9976,-9.157,-1.39,166.3
1941.58863266,0.0239,-0.1602,0.9971,-9.157,-1.39,166.3
1941.688632715,0.0239,-0.1602,0.998,-9.157,-1.39,166.3
1941.788632844,0.0244,-0.1602,0.998,-9.157,-1.39,166.3
1941.888632936,0.0249,-0.1602,0.999,-9.157,-1.39,166.3
1941.98863301,0.0244,-0.1606,0.998,-9.157,-1.39,166.3
1942.088633065,0.0239,-0.1602,0.998,-9.157,-1.39,166.3
1942.188633101,0.0244,-0.1606,0.998,-9.157,-1.39,166.3
1942.28863323,0.0244,-0.1611,0.999,-9.157,-1.39,166.3
1942.388633248,0.0244,-0.1611,0.998,-9.157,-1.384,166.3
1942.488633303,0.0244,-0.1616,0.9985,-9.157,-1.384,166.3
1942.588633321,0.0239,-0.1611,0.9985,-9.157,-1.384,166.3
1942.68863345,0.0239,-0.1602,0.9976,-9.157,-1.384,166.3
1942.78863356,0.0244,-0.1602,0.9985,-9.157,-1.39,166.3
1942.888633671,0.0244,-0.1611,0.9985,-9.157,-1.39,166.3
1942.988653541,0.0239,-0.1602,0.9976,-9.157,-1.39,166.3
1943.08865367,0.0249,-0.1606,0.998,-9.157,-1.39,166.3
1943.188653762,0.0244,-0.1606,0.998,-9.157,-1.39,166.3
1943.288653798,0.0239,-0.1606,0.9976,-9.157,-1.39,166.3
1943.388653835,0.0244,-0.1602,0.9985,-9.157,-1.39,166.3
1943.488653945,0.0244,-0.1606,0.998,-9.157,-1.39,166.3
1943.588654037,0.0244,-0.1602,0.998,-9.157,-1.39,166.3
1943.688654111,0.0254,-0.1602,0.9976,-9.157,-1.384,166.3
1943.788654128,0.0249,-0.1606,0.999,-9.157,-1.384,166.3
1943.888654146,0.0244,-0.1606,0.998,-9.157,-1.384,166.3
1943.988654201,0.0244,-0.1606,0.9985,-9.157,-1.384,166.3
1944.088654312,0.0249,-0.1606,0.999,-9.157,-1.384,166.3
1944.188654404,0.0239,-0.1606,0.998,-9.157,-1.384,166.3
1944.288654422,0.0234,-0.1606,0.998,-9.157,-1.384,166.3
1944.388654458,0.0239,-0.1611,0.9985,-9.157,-1.384,166.3
1944.488654513,0.0234,-0.1606,0.9985,-9.157,-1.384,166.3
1944.588654568,0.0249,-0.1602,0.998,-9.157,-1.384,166.3
1944.688654623,0.0244,-0.1611,0.9976,-9.157,-1.384,166.3
1944.788654715,0.0244,-0.1597,0.998,-9.157,-1.384,166.3
1944.888654752,0.0244,-0.1606,0.998,-9.152,-1.384,166.3
1944.988654806,0.0249,-0.1597,0.9976,-9.152,-1.384,166.3
1945.088654861,0.0244,-0.1602,0.9985,-9.152,-1.384,166.3
1945.188654916,0.0244,-0.1602,0.9985,-9.152,-1.384,166.3
1945.288654953,0.0239,-0.1606,0.9976,-9.152,-1.384,166.3
1945.388655008,0.0244,-0.1602,0.9985,-9.152,-1.384,166.3
1945.488655026,0.0244,-0.1606,0.9985,-9.152,-1.384,166.3
1945.588655136,0.0244,-0.1602,0.998,-9.152,-1.384,166.3
1945.688655191,0.0244,-0.1606,0.9971,-9.152,-1.384,166.3
1945.788655302,0.0244,-0.1602,0.998,-9.152,-1.384,166.3
1945.888710876,0.0234,-0.1611,0.999,-9.152,-1.384,166.3
1945.988710968,0.0254,-0.1616,0.9976,-9.152,-1.384,166.3
1946.088711004,0.0239,-0.1616,0.9985,-9.152,-1.384,166.3
1946.188711078,0.0244,-0.1606,0.998,-9.152,-1.384,166.3
1946.288711151,0.0244,-0.1611,0.9985,-9.152,-1.384,166.3
1946.388711169,0.0249,-0.1606,0.9976,-9.152,-1.384,166.3
1946.488711224,0.0239,-0.1606,0.998,-9.152,-1.384,166.3
1946.588711298,0.0254,-0.1606,0.999,-9.152,-1.384,166.3
1946.688711316,0.0249,-0.1597,0.9971,-9.152,-1.384,166.3
1946.788711408,0.0239,-0.1606,0.998,-9.152,-1.39,166.3
1946.888711426,0.0239,-0.1602,0.9971,-9.152,-1.384,166.3
1946.98871148,0.0239,-0.1606,0.9971,-9.152,-1.384,166.3
1947.088711573,0.0239,-0.1606,0.998,-9.152,-1.384,166.3
1947.188711702,0.0244,-0.1602,0.9985,-9.152,-1.384,166.3
1947.288711812,0.0249,-0.1606,0.9985,-9.152,-1.384,166.3
1947.388711867,0.0249,-0.1602,0.9985,-9.152,-1.384,166.3
1947.488711959,0.0244,-0.1611,0.9985,-9.152,-1.384,166.3
1947.588712014,0.0234,-0.1616,0.9976,-9.152,-1.384,166.3
1947.688712051,0.0244,-0.1606,0.9995,-9.152,-1.384,166.3
1947.788712161,0.0239,-0.1621,0.998,-9.152,-1.384,166.3
1947.888712179,0.0244,-0.1611,0.998,-9.152,-1.384,166.3
1947.988712216,0.0249,-0.1611,0.999,-9.152,-1.384,166.3
1948.088712234,0.0239,-0.1602,0.998,-9.152,-1.384,166.3
1948.188712289,0.0239,-0.1606,0.998,-9.152,-1.384,166.3
1948.288712325,0.0244,-0.1606,0.9985,-9.152,-1.384,166.3
1948.388712399,0.0244,-0.1606,0.9985,-9.152,-1.384,166.3
1948.488712472,0.0244,-0.1611,0.998,-9.152,-1.384,166.3
1948.588712509,0.0239,-0.1606,0.9985,-9.152,-1.384,166.3
1948.688712545,0.0244,-0.1606,0.9985,-9.152,-1.384,166.3
1948.7887126,0.0244,-0.1606,0.998,-9.152,-1.384,166.3
1948.888712692,0.0244,-0.1611,0.998,-9.152,-1.384,166.3
1948.988712692,0.0244,-0.1606,0.9985,-9.152,-1.384,166.3
1949.088712747,0.0244,-0.1606,0.9976,-9.152,-1.384,166.3
1949.188712765,0.0239,-0.1606,0.9976,-9.157,-1.39,166.3
1949.288712857,0.0239,-0.1597,0.9985,-9.157,-1.39,166.3
1949.388712912,0.0239,-0.1616,0.9976,-9.157,-1.384,166.3
1949.48871293,0.0249,-0.1602,0.9976,-9.157,-1.384,166.3
1949.588713022,0.0249,-0.1606,0.998,-9.157,-1.384,166.3
1949.688713059,0.0244,-0.1611,0.9976,-9.157,-1.384,166.3
1949.788713114,0.0249,-0.1602,0.9976,-9.157,-1.384,166.3
1949.888713132,0.0239,-0.1616,0.998,-9.157,-1.384,166.3
1949.98871315,0.0239,-0.1606,0.9976,-9.157,-1.384,166.3
1950.088713168,0.0239,-0.1616,0.998,-9.157,-1.384,166.3
1950.18871326,0.0254,-0.1606,0.9976,-9.157,-1.384,166.3
1950.288713389,0.0249,-0.1602,0.998,-9.157,-1.384,166.3
1950.388713444,0.0239,-0.1606,0.998,-9.157,-1.384,166.3
1950.488713499,0.0239,-0.1611,0.9971,-9.157,-1.384,166.3
1950.588713554,0.0239,-0.1611,0.9985,-9.157,-1.384,166.3
1950.688713591,0.0244,-0.1606,0.9976,-9.157,-1.384,166.3
1950.788713646,0.0239,-0.1616,0.998,-9.157,-1.384,166.3
1950.888713719,0.0239,-0.1602,0.9971,-9.157,-1.384,166.3
1950.988713793,0.0239,-0.1602,0.998,-9.157,-1.384,166.3
1951.088713922,0.0249,-0.1602,0.9985,-9.157,-1.384,166.3
1951.18871394,0.0244,-0.1611,0.9985,-9.157,-1.384,166.3
1951.288714051,0.0239,-0.1606,0.999,-9.157,-1.384,166.3
1951.388714161,0.0244,-0.1606,0.998,-9.157,-1.384,166.3
1951.488714198,0.0244,-0.1611,0.9985,-9.157,-1.384,166.3
1951.588714327,0.0249,-0.1606,0.9985,-9.157,-1.384,166.3
1951.688714345,0.0244,-0.1606,0.9971,-9.157,-1.384,166.3
1951.788714382,0.0239,-0.1611,0.9976,-9.157,-1.384,166.3
1951.888714418,0.0249,-0.1611,0.9976,-9.157,-1.384,166.3
1951.988714492,0.0259,-0.1611,0.9976,-9.157,-1.384,166.3
1952.088714547,0.0239,-0.1611,0.998,-9.157,-1.384,166.3
1952.188714602,0.0249,-0.1611,0.998,-9.157,-1.384,166.3
1952.288714712,0.0234,-0.1616,0.9985,-9.157,-1.384,166.3
1952.388714786,0.0239,-0.1616,0.9985,-9.157,-1.384,166.3
1952.488714878,0.0244,-0.1606,0.9985,-9.157,-1.384,166.3
1952.588714952,0.0239,-0.1602,0.9985,-9.157,-1.39,166.3
1952.688715007,0.0244,-0.1616,0.9976,-9.157,-1.39,166.3
1952.788715025,0.0249,-0.1606,0.998,-9.157,-1.39,166.3
1952.888715062,0.0244,-0.1611,0.9985,-9.157,-1.39,166.3
1952.988715172,0.0244,-0.1606,0.9985,-9.157,-1.39,166.3
1953.088715264,0.0239,-0.1611,0.9985,-9.157,-1.39,166.3
1953.188715282,0.0244,-0.1606,0.9976,-9.157,-1.39,166.3
1953.2887153,0.0244,-0.1611,0.998,-9.157,-1.39,166.3
1953.388715393,0.0244,-0.1606,0.9985,-9.157,-1.384,166.3
1953.488715429,0.0239,-0.1606,0.998,-9.157,-1.384,166.3
1953.588715466,0.0244,-0.1602,0.998,-9.157,-1.384,166.3
1953.688715502,0.0244,-0.1606,0.999,-9.157,-1.384,166.3
1953.788715502,0.0234,-0.1606,0.9985,-9.157,-1.384,166.3
1953.888715613,0.0239,-0.1611,0.999,-9.157,-1.384,166.3
1953.988715686,0.0239,-0.1606,0.9985,-9.157,-1.384,166.3
1954.088715704,0.0239,-0.1611,0.998,-9.157,-1.384,166.3
1954.188715704,0.0249,-0.1611,0.998,-9.157,-1.384,166.3
1954.288715833,0.0239,-0.1606,0.998,-9.157,-1.384,166.3
1954.388715962,0.0239,-0.1606,0.999,-9.157,-1.384,166.3
1954.488715999,0.0249,-0.1606,0.998,-9.157,-1.384,166.3
1954.588716017,0.0244,-0.1606,0.998,-9.157,-1.39,166.3
1954.688716109,0.0249,-0.1606,0.998,-9.157,-1.39,166.3
1954.78871622,0.0234,-0.1606,0.998,-9.157,-1.39,166.3
1954.888716256,0.0249,-0.1602,0.9976,-9.163,-1.39,166.3
1954.988716256,0.0244,-0.1616,0.9985,-9.157,-1.39,166.3
1955.088716311,0.0244,-0.1602,0.9985,-9.157,-1.39,166.3
1955.188716347,0.0244,-0.1602,0.9971,-9.157,-1.39,166.3
1955.288716403,0.0249,-0.1616,0.9985,-9.157,-1.39,166.3
1955.388716458,0.0239,-0.1616,0.998,-9.157,-1.39,166.3
1955.48871655,0.0234,-0.1606,0.998,-9.157,-1.39,166.3
1955.588716624,0.0254,-0.1602,0.9985,-9.157,-1.39,166.3
1955.688808957,0.0249,-0.1597,0.9985,-9.157,-1.39,166.3
1955.788809049,0.0239,-0.1611,0.9985,-9.157,-1.39,166.3
1955.888809123,0.0239,-0.1611,0.998,-9.157,-1.39,166.3
1955.988809141,0.0244,-0.1602,0.9985,-9.157,-1.39,166.3
1956.088809177,0.0234,-0.1602,0.999,-9.157,-1.39,166.3
1956.18880927,0.0244,-0.1606,0.998,-9.157,-1.39,166.3
1956.28880938,0.0244,-0.1606,0.9985,-9.157,-1.39,166.3
1956.388809472,0.0244,-0.1611,0.998,-9.157,-1.39,166.3
1956.48880949,0.0249,-0.1602,0.9985,-9.157,-1.39,166.3
1956.588809583,0.0249,-0.1606,0.9971,-9.157,-1.39,166.3
1956.688809601,0.0244,-0.1606,0.9985,-9.157,-1.39,166.3
1956.788809711,0.0244,-0.1611,0.998,-9.157,-1.39,166.3
1956.888809822,0.0239,-0.1611,0.9976,-9.157,-1.39,166.3
1956.98880984,0.0234,-0.1602,0.998,-9.157,-1.39,166.3
1957.088809895,0.0239,-0.1611,0.998,-9.157,-1.39,166.3
1957.188809914,0.0249,-0.1606,0.998,-9.157,-1.39,166.3
1957.288809932,0.0239,-0.1616,0.9985,-9.157,-1.39,166.3
1957.388810005,0.0239,-0.1606,0.9976,-9.157,-1.384,166.3
1957.488810042,0.0239,-0.1606,0.999,-9.157,-1.384,166.3
1957.588810079,0.0239,-0.1602,0.9976,-9.157,-1.384,166.3
1957.688810097,0.0234,-0.1606,0.9985,-9.157,-1.384,166.3
1957.788810152,0.0244,-0.1611,0.9976,-9.157,-1.384,166.3
1957.888810207,0.0239,-0.1621,0.9976,-9.157,-1.384,166.3
1957.988810336,0.0244,-0.1606,0.998,-9.157,-1.384,166.3
1958.088810447,0.0244,-0.1602,0.998,-9.157,-1.384,166.3
1958.188810558,0.0244,-0.1616,0.9976,-9.157,-1.384,166.3
1958.288810576,0.0244,-0.1606,0.9985,-9.163,-1.384,166.3
1958.388810687,0.0239,-0.1611,0.999,-9.163,-1.384,166.3
1958.488810742,0.0234,-0.1611,0.9985,-9.163,-1.384,166.3
1958.588810778,0.0244,-0.1606,0.998,-9.163,-1.384,166.3
1958.688810852,0.0249,-0.1606,0.998,-9.163,-1.384,166.3
1958.788810852,0.0239,-0.1611,0.9976,-9.163,-1.384,166.3
1958.888810944,0.0239,-0.1602,0.999,-9.163,-1.384,166.3
1958.988810944,0.0239,-0.1611,0.999,-9.163,-1.384,166.3
1959.088811036,0.0239,-0.1611,0.9971,-9.163,-1.384,166.3
1959.188811072,0.0254,-0.1611,0.9976,-9.163,-1.384,166.3
1959.288811109,0.0249,-0.1606,0.998,-9.163,-1.384,166.3
1959.388811127,0.0244,-0.1611,0.9976,-9.163,-1.39,166.3
1959.488811238,0.0239,-0.1606,0.9985,-9.163,-1.39,166.3
1959.588811349,0.0234,-0.1611,0.998,-9.163,-1.39,166.3
1959.688811404,0.0239,-0.1611,0.998,-9.163,-1.39,166.3
1959.788811459,0.0244,-0.1606,0.998,-9.163,-1.39,166.3
1959.88881157,0.0239,-0.1611,0.999,-9.163,-1.39,166.3
1959.988811644,0.0244,-0.1606,0.9985,-9.163,-1.384,166.3
1960.088811699,0.0239,-0.1606,0.998,-9.163,-1.384,166.3
1960.188811791,0.0249,-0.1606,0.9985,-9.163,-1.384,166.3
1960.288811809,0.0254,-0.1616,0.9971,-9.163,-1.384,166.3
1960.38881192,0.0239,-0.1602,0.999,-9.163,-1.384,166.3
1960.488811938,0.0244,-0.1606,0.9985,-9.163,-1.384,166.3
1960.588811956,0.0234,-0.1611,0.998,-9.163,-1.384,166.3
1960.688811956,0.0239,-0.1606,0.9985,-9.163,-1.384,166.3
1960.788811993,0.0249,-0.1611,0.9985,-9.163,-1.384,166.3
1960.888812048,0.0239,-0.1616,0.998,-9.163,-1.384,166.3
1960.988812066,0.0239,-0.1606,0.9976,-9.163,-1.384,166.3
1961.088812084,0.0244,-0.1606,0.9976,-9.163,-1.384,166.3
1961.188812195,0.0249,-0.1606,0.998,-9.163,-1.384,166.3
1961.288812213,0.0244,-0.1606,0.9971,-9.163,-1.384,166.3
1961.388812268,0.0244,-0.1606,0.9985,-9.163,-1.384,166.3
1961.488812323,0.0249,-0.1611,0.9985,-9.163,-1.384,166.3
1961.588812379,0.0244,-0.1602,0.9995,-9.163,-1.384,166.3
1961.688812397,0.0244,-0.1597,0.9985,-9.163,-1.39,166.3
1961.788812452,0.0244,-0.1606,0.9985,-9.163,-1.39,166.3
1961.888812507,0.0239,-0.1606,0.9976,-9.157,-1.39,166.3
1961.988849248,0.0244,-0.1606,0.998,-9.157,-1.39,166.3
1962.08884934,0.0249,-0.1621,0.999,-9.157,-1.39,166.3
1962.188849395,0.0244,-0.1602,0.998,-9.157,-1.39,166.3
1962.288849506,0.0234,-0.1611,0.999,-9.157,-1.39,166.3
1962.388849598,0.0234,-0.1611,0.998,-9.157,-1.39,166.3
1962.488849654,0.0234,-0.1606,0.9976,-9.157,-1.39,166.3
1962.588849764,0.0244,-0.1606,0.9985,-9.157,-1.39,166.3
1962.688849801,0.0239,-0.1611,0.998,-9.157,-1.384,166.3
1962.788849875,0.0249,-0.1602,0.9976,-9.157,-1.384,166.3
1962.888849912,0.0244,-0.1602,0.998,-9.157,-1.384,166.3
1962.988849985,0.0244,-0.1611,0.998,-9.157,-1.384,166.3
1963.088850022,0.0239,-0.1606,0.998,-9.157,-1.384,166.3
1963.188850077,0.0234,-0.1611,0.998,-9.163,-1.384,166.3
1963.288850133,0.0239,-0.1606,0.9976,-9.163,-1.384,166.3
1963.388850169,0.0239,-0.1616,0.9976,-9.163,-1.384,166.3
1963.488850206,0.0239,-0.1606,0.9985,-9.163,-1.384,166.3
1963.588850243,0.0244,-0.1616,0.9985,-9.163,-1.384,166.3
1963.688850353,0.0239,-0.1611,0.9971,-9.163,-1.384,166.3
1963.788850446,0.0249,-0.1611,0.998,-9.163,-1.384,166.3
1963.888850538,0.0244,-0.1611,0.9971,-9.163,-1.384,166.3
1963.98885063,0.0244,-0.1611,0.9971,-9.163,-1.384,166.3
1964.08885063,0.0244,-0.1611,0.998,-9.163,-1.384,166.3
1964.188850704,0.0239,-0.1616,0.998,-9.168,-1.384,166.3
1964.288850815,0.0244,-0.1606,0.9985,-9.168,-1.384,166.3
1964.388850851,0.0249,-0.1616,0.998,-9.168,-1.384,166.3
1964.488850907,0.0239,-0.1611,0.998,-9.168,-1.384,166.3
1964.588851017,0.0244,-0.1602,0.9985,-9.168,-1.384,166.3
1964.688851128,0.0234,-0.1616,0.9985,-9.168,-1.384,166.3
1964.788851221,0.0239,-0.1602,0.9971,-9.168,-1.384,166.3
1964.888851276,0.0249,-0.1606,0.998,-9.168,-1.384,166.3
1964.98885135,0.0249,-0.1606,0.999,-9.163,-1.384,166.3
1965.088851423,0.0239,-0.1611,0.998,-9.163,-1.384,166.3
1965.189073924,0.0254,-0.1611,0.9971,-9.168,-1.379,166.3
1965.289074016,0.0239,-0.1611,0.9976,-9.168,-1.379,166.3
1965.389074071,0.0239,-0.1606,0.998,-9.168,-1.379,166.3
1965.489338239,0.0239,-0.1606,0.998,-9.168,-1.379,166.3
1965.589338294,0.0239,-0.1611,0.9985,-9.168,-1.379,166.3
1965.689338331,0.0239,-0.1616,0.9976,-9.168,-1.379,166.3
1965.789338405,0.0234,-0.1602,0.998,-9.168,-1.379,166.3
1965.889338478,0.0239,-0.1597,0.9971,-9.168,-1.379,166.3
1965.989586664,0.0239,-0.1611,0.998,-9.168,-1.384,166.3
1966.08958672,0.0244,-0.1602,0.9976,-9.168,-1.384,166.3
1966.191428745,0.0239,-0.1606,0.998,-9.168,-1.384,166.3
1966.2914288,0.0244,-0.1606,0.999,-9.168,-1.384,166.3
1966.391428892,0.0234,-0.1602,0.998,-9.168,-1.379,166.3
1966.492371303,0.0244,-0.1611,0.998,-9.168,-1.379,166.3
1966.59237134,0.0244,-0.1606,0.9976,-9.168,-1.379,166.3
1966.692371395,0.0244,-0.1602,0.998,-9.168,-1.379,166.3
1966.792371487,0.0244,-0.1606,0.998,-9.168,-1.379,166.3
1966.892371543,0.0239,-0.1606,0.9985,-9.168,-1.379,166.3
1966.992371616,0.0239,-0.1611,0.9976,-9.163,-1.384,166.3
1967.092371653,0.0244,-0.1606,0.9985,-9.163,-1.384,166.3
1967.19237169,0.0254,-0.1616,0.9976,-9.163,-1.379,166.3
1967.292371782,0.0239,-0.1606,0.9961,-9.163,-1.379,166.3
1967.392371819,0.0249,-0.1602,0.999,-9.163,-1.379,166.3
1967.49240106,0.0239,-0.1611,0.998,-9.163,-1.384,166.3
1967.592401096,0.0239,-0.1611,0.9985,-9.163,-1.384,166.3
1967.692401115,0.0249,-0.1606,0.9985,-9.163,-1.384,166.3
1967.792401188,0.0244,-0.1611,0.998,-9.163,-1.384,166.3
1967.892401318,0.0244,-0.1611,0.9985,-9.163,-1.379,166.3
1967.992401429,0.0249,-0.1611,0.9985,-9.163,-1.379,166.3
1968.092401465,0.0239,-0.1606,0.9985,-9.163,-1.384,166.3
1968.192401502,0.0249,-0.1597,0.9976,-9.163,-1.384,166.3
1968.292401576,0.0239,-0.1611,0.9985,-9.163,-1.384,166.3
1968.392401613,0.0244,-0.1611,0.9976,-9.163,-1.384,166.3
1968.492401724,0.0244,-0.1606,0.9971,-9.163,-1.384,166.3
1968.592401779,0.0244,-0.1606,0.9985,-9.163,-1.384,166.3
1968.692401871,0.0239,-0.1606,0.9995,-9.163,-1.384,166.3
1968.792401908,0.0244,-0.1611,0.9971,-9.163,-1.384,166.3
1968.892402001,0.0249,-0.1606,0.9976,-9.163,-1.384,166.3
1968.992402111,0.0244,-0.1611,0.998,-9.163,-1.384,166.3
1969.092402148,0.0244,-0.1611,0.998,-9.163,-1.384,166.3
1969.192402166,0.0244,-0.1611,0.998,-9.163,-1.384,166.3
1969.292402166,0.0239,-0.1616,0.998,-9.163,-1.384,166.3
1969.392402222,0.0239,-0.1606,0.9971,-9.163,-1.384,166.3
1969.492402277,0.0244,-0.1616,0.998,-9.163,-1.384,166.3
1969.592402388,0.0239,-0.1602,0.998,-9.163,-1.384,166.3
1969.692402406,0.0239,-0.1611,0.9976,-9.163,-1.384,166.3
1969.79240248,0.0254,-0.1606,0.9976,-9.163,-1.384,166.3
1969.892402591,0.0244,-0.1606,0.9976,-9.163,-1.384,166.3
1969.992402702,0.0249,-0.1606,0.998,-9.163,-1.384,166.3
1970.092402831,0.0244,-0.1611,0.9985,-9.163,-1.384,166.3
1970.192402961,0.0239,-0.1606,0.999,-9.163,-1.384,166.3
1970.292402979,0.0239,-0.1616,0.9985,-9.163,-1.384,166.3
1970.392403071,0.0244,-0.1602,0.998,-9.163,-1.384,166.3
1970.492403182,0.0239,-0.1611,0.998,-9.163,-1.384,166.3
1970.592509682,0.0244,-0.1611,0.998,-9.163,-1.384,166.3
1970.692509682,0.0239,-0.1602,0.9976,-9.163,-1.384,166.3
1970.7925097,0.0244,-0.1611,0.9976,-9.163,-1.384,166.3
1970.892509737,0.0249,-0.1611,0.9976,-9.163,-1.384,166.3
1970.992509737,0.0239,-0.1611,0.998,-9.163,-1.384,166.3
1971.092509848,0.0234,-0.1611,0.9985,-9.163,-1.384,166.3
1971.192509903,0.0244,-0.1602,0.9976,-9.163,-1.384,166.3
1971.292509922,0.0234,-0.1611,0.998,-9.163,-1.384,166.3
1971.392509958,0.0244,-0.1606,0.9985,-9.163,-1.384,166.3
1971.492509977,0.0244,-0.1602,0.9985,-9.168,-1.384,166.3
1971.592510088,0.0229,-0.1602,0.9985,-9.168,-1.384,166.3
1971.692510124,0.0239,-0.1611,0.9976,-9.163,-1.384,166.3
1971.79251018,0.0239,-0.1606,0.9976,-9.163,-1.384,166.3
1971.892510235,0.0239,-0.1597,0.9985,-9.163,-1.384,166.3
1971.992510235,0.0249,-0.1611,0.999,-9.163,-1.384,166.3
1972.092510309,0.0244,-0.1611,0.9976,-9.163,-1.384,166.3
1972.19251042,0.0244,-0.1602,0.9985,-9.163,-1.384,166.3
1972.292510475,0.0239,-0.1606,0.9971,-9.163,-1.384,166.3
1972.392510512,0.0239,-0.1621,0.9985,-9.163,-1.384,166.3
1972.492510567,0.0239,-0.1606,0.9985,-9.163,-1.384,166.3
1972.592510604,0.0254,-0.1616,0.9976,-9.163,-1.384,166.3
1972.692510604,0.0234,-0.1611,0.998,-9.163,-1.384,166.3
1972.792510715,0.0239,-0.1611,0.9971,-9.163,-1.384,166.3
1972.89251077,0.0239,-0.1606,0.998,-9.163,-1.384,166.3
1972.992510789,0.0244,-0.1606,0.999,-9.163,-1.384,166.3
1973.0925109,0.0244,-0.1606,0.9976,-9.163,-1.384,166.3
1973.192510955,0.0234,-0.1602,0.9976,-9.163,-1.384,166.3
1973.292510992,0.0239,-0.1611,0.9976,-9.163,-1.384,166.3
1973.392511084,0.0244,-0.1602,0.9976,-9.163,-1.384,166.3
1973.492511103,0.0244,-0.1602,0.9976,-9.163,-1.384,166.3
1973.592511195,0.0244,-0.1611,0.9985,-9.163,-1.384,166.3
1973.692511306,0.0244,-0.1616,0.9976,-9.163,-1.384,166.3
1973.792511398,0.0239,-0.1611,0.9976,-9.163,-1.384,166.3
1973.892511454,0.0244,-0.1616,0.9985,-9.163,-1.384,166.3
1973.992511583,0.0239,-0.1611,0.9985,-9.168,-1.384,166.3
1974.092511583,0.0239,-0.1606,0.998,-9.168,-1.384,166.3
1974.193141826,0.0239,-0.1606,0.999,-9.163,-1.384,166.3
1974.2931419,0.0249,-0.1602,0.998,-9.163,-1.384,166.3
1974.393141974,0.0239,-0.1602,0.9971,-9.163,-1.384,166.3
1974.493142011,0.0249,-0.1606,0.9985,-9.163,-1.384,166.3
1974.597894473,0.0239,-0.1606,0.998,-9.163,-1.384,166.3
1974.697894565,0.0244,-0.1606,0.9976,-9.163,-1.384,166.3
1974.797894602,0.0244,-0.1606,0.998,-9.163,-1.384,166.3
1974.897894694,0.0234,-0.1616,0.998,-9.163,-1.384,166.3
1974.997894713,0.0239,-0.1611,0.998,-9.163,-1.384,166.3
1975.097894824,0.0244,-0.1611,0.9976,-9.163,-1.384,166.3
1975.197894879,0.0244,-0.1616,0.998,-9.163,-1.384,166.3
1975.297927509,0.0244,-0.1611,0.9971,-9.168,-1.384,166.3
1975.397927527,0.0239,-0.1611,0.9985,-9.168,-1.384,166.3
1975.497927619,0.0239,-0.1616,0.9971,-9.168,-1.384,166.3
1975.597927619,0.0244,-0.1611,0.9976,-9.168,-1.384,166.3
1975.697927712,0.0249,-0.1606,0.998,-9.168,-1.384,166.3
1975.79792773,0.0239,-0.1606,0.9976,-9.168,-1.384,166.3
1975.897927785,0.0249,-0.1602,0.9976,-9.168,-1.384,166.3
1975.997927804,0.0239,-0.1616,0.998,-9.168,-1.384,166.3
1976.097927915,0.0239,-0.1611,0.9976,-9.168,-1.384,166.3
1976.197927952,0.0244,-0.1616,0.998,-9.168,-1.384,166.3
1976.297928044,0.0244,-0.1621,0.9976,-9.168,-1.384,166.3
1976.397928081,0.0244,-0.1616,0.9971,-9.168,-1.384,166.3
1976.498645565,0.0244,-0.1606,0.9976,-9.168,-1.384,166.3
1976.600005311,0.0249,-0.1611,0.998,-9.168,-1.384,166.3
1976.700005403,0.0254,-0.1602,0.9976,-9.168,-1.384,166.3
1976.800005496,0.0244,-0.1602,0.9985,-9.168,-1.384,166.3
1976.900005533,0.0239,-0.1606,0.9971,-9.168,-1.384,166.3
1977.000005551,0.0244,-0.1606,0.998,-9.168,-1.384,166.3
1977.100005625,0.0239,-0.1616,0.998,-9.163,-1.384,166.3
1977.200005717,0.0239,-0.1616,0.9976,-9.163,-1.384,166.3
1977.300005847,0.0244,-0.1611,0.998,-9.163,-1.384,166.3
1977.400005847,0.0244,-0.1611,0.9976,-9.163,-1.384,166.3
1977.500005884,0.0249,-0.1611,0.9985,-9.163,-1.384,166.3
1977.600005976,0.0249,-0.1616,0.9985,-9.163,-1.384,166.3
1977.700006069,0.0239,-0.1611,0.998,-9.168,-1.384,166.3
1977.800006087,0.0254,-0.1606,0.9985,-9.168,-1.384,166.3
1977.90000618,0.0239,-0.1616,0.999,-9.168,-1.384,166.3
1978.000006253,0.0244,-0.1611,0.999,-9.168,-1.384,166.3
1978.100015698,0.0244,-0.1616,0.998,-9.168,-1.384,166.3
1978.200015809,0.0244,-0.1606,0.9985,-9.168,-1.384,166.3
1978.300015827,0.0244,-0.1592,0.998,-9.168,-1.384,166.3
1978.400015846,0.0244,-0.1611,0.998,-9.168,-1.384,166.3
1978.500015864,0.0234,-0.1606,0.998,-9.168,-1.384,166.3
1978.600015957,0.0239,-0.1616,0.998,-9.168,-1.384,166.3
1978.700016068,0.0234,-0.1616,0.999,-9.168,-1.384,166.3
1978.800016104,0.0254,-0.1621,0.999,-9.168,-1.384,166.3
1978.900016197,0.0234,-0.1606,0.9976,-9.168,-1.384,166.3
1979.000016215,0.0234,-0.1606,0.998,-9.168,-1.384,166.3
1979.100016326,0.0244,-0.1606,0.9985,-9.168,-1.379,166.3
1979.200016363,0.0244,-0.1606,0.9985,-9.168,-1.379,166.3
1979.300016437,0.0244,-0.1611,0.9971,-9.168,-1.379,166.3
1979.400016456,0.0244,-0.1606,0.998,-9.168,-1.379,166.3
1979.500016548,0.0244,-0.1611,0.9971,-9.168,-1.384,166.3
1979.600016585,0.0254,-0.1606,0.9976,-9.168,-1.384,166.3
1979.700016641,0.0239,-0.1602,0.998,-9.168,-1.384,166.3
1979.800016678,0.0244,-0.1606,0.9985,-9.168,-1.384,166.3
1979.900016733,0.0244,-0.1611,0.9985,-9.168,-1.384,166.3
1980.000016844,0.0239,-0.1606,0.9985,-9.168,-1.384,166.3
1980.100016844,0.0234,-0.1602,0.9966,-9.168,-1.384,166.3
1980.200016936,0.0239,-0.1602,0.999,-9.168,-1.384,166.3
1980.300017048,0.0244,-0.1606,0.998,-9.163,-1.384,166.3
1980.400031585,0.0244,-0.1606,0.9976,-9.163,-1.384,166.3
1980.500031696,0.0249,-0.1597,0.998,-9.163,-1.384,166.3
1980.600031807,0.0244,-0.1611,0.9976,-9.163,-1.384,166.3
1980.700031899,0.0239,-0.1606,0.9976,-9.163,-1.384,166.3
1980.800031899,0.0234,-0.1606,0.9976,-9.163,-1.379,166.3
1980.900031973,0.0234,-0.1611,0.9985,-9.163,-1.379,166.3
1981.00003201,0.0239,-0.1616,0.998,-9.163,-1.379,166.3
1981.100032103,0.0239,-0.1611,0.998,-9.163,-1.379,166.3
1981.200032232,0.0239,-0.1611,0.998,-9.163,-1.379,166.3
1981.300032306,0.0239,-0.1606,0.998,-9.163,-1.384,166.3
1981.400032417,0.0239,-0.1606,0.9976,-9.163,-1.384,166.3
1981.500032473,0.0249,-0.1602,0.998,-9.163,-1.384,166.3
1981.60003251,0.0249,-0.1606,0.9985,-9.163,-1.384,166.3
1981.70003251,0.0244,-0.1602,0.9976,-9.163,-1.384,166.3
1981.800032621,0.0244,-0.1602,0.9976,-9.163,-1.384,166.3
1981.900032639,0.0239,-0.1611,0.998,-9.163,-1.384,166.3
1982.000032657,0.0244,-0.1616,0.9976,-9.163,-1.384,166.3
1982.100032731,0.0244,-0.1611,0.9976,-9.163,-1.384,166.3
1982.20003275,0.0244,-0.1606,0.9971,-9.163,-1.384,166.3
1982.300032787,0.0239,-0.1616,0.998,-9.168,-1.384,166.3
1982.400032861,0.0244,-0.1606,0.9976,-9.168,-1.384,166.3
1982.500032898,0.0249,-0.1611,0.998,-9.168,-1.384,166.3
1982.600032953,0.0244,-0.1611,0.9971,-9.163,-1.384,166.3
1982.700033046,0.0249,-0.1606,0.9976,-9.168,-1.384,166.3
1982.800033101,0.0234,-0.1606,0.998,-9.168,-1.384,166.3
1982.900033138,0.0244,-0.1606,0.9976,-9.168,-1.384,166.3
1983.000033157,0.0239,-0.1602,0.9976,-9.163,-1.384,166.3
1983.100033175,0.0244,-0.1616,0.9976,-9.163,-1.384,166.3
1983.200033249,0.0244,-0.1606,0.9985,-9.168,-1.384,166.3
1983.300033305,0.0249,-0.1611,0.9995,-9.168,-1.384,166.3
1983.400033323,0.0244,-0.1606,0.998,-9.163,-1.384,166.3
1983.500033416,0.0239,-0.1611,0.9985,-9.163,-1.384,166.3
1983.600033416,0.0244,-0.1606,0.9985,-9.163,-1.384,166.3
1983.700033434,0.0244,-0.1611,0.998,-9.163,-1.384,166.3
1983.80003349,0.0239,-0.1616,0.998,-9.163,-1.384,166.3
1983.900033508,0.0244,-0.1606,0.998,-9.163,-1.384,166.3
1984.000033527,0.0239,-0.1611,0.9985,-9.163,-1.384,166.3
1984.100033564,0.0239,-0.1611,0.9971,-9.163,-1.384,166.3
1984.200033656,0.0249,-0.1611,0.998,-9.163,-1.384,166.3
1984.300033712,0.0234,-0.1611,0.9976,-9.163,-1.384,166.3
1984.400033767,0.0239,-0.1597,0.9976,-9.163,-1.384,166.3
1984.500033786,0.0244,-0.1611,0.9976,-9.163,-1.384,166.3
1984.600033879,0.0244,-0.1611,0.998,-9.163,-1.384,166.3
1984.70003399,0.0239,-0.1611,0.9976,-9.163,-1.384,166.3
1984.800034045,0.0244,-0.1611,0.9976,-9.163,-1.384,166.3
1984.900034064,0.0239,-0.1606,0.998,-9.163,-1.384,166.3
1985.000034082,0.0249,-0.1602,0.9976,-9.163,-1.384,166.3
1985.100034138,0.0239,-0.1616,0.998,-9.163,-1.384,166.3
1985.200034138,0.0239,-0.1616,0.998,-9.163,-1.384,166.3
1985.300034193,0.0249,-0.1611,0.998,-9.163,-1.384,166.3
1985.400034267,0.0234,-0.1606,0.998,-9.163,-1.384,166.3
1985.500034341,0.0244,-0.1611,0.998,-9.163,-1.384,166.3
1985.60003436,0.0239,-0.1616,0.9985,-9.163,-1.384,166.3
1985.700034378,0.0234,-0.1606,0.9976,-9.168,-1.379,166.3
1985.800034452,0.0244,-0.1611,0.9985,-9.168,-1.379,166.3
1985.900034526,0.0244,-0.1611,0.998,-9.168,-1.379,166.3
1986.000034601,0.0239,-0.1606,0.998,-9.168,-1.379,166.3
1986.100034675,0.0244,-0.1611,0.9985,-9.168,-1.379,166.3
1986.200034712,0.0244,-0.1606,0.9976,-9.168,-1.379,166.3
1986.300034749,0.0249,-0.1611,0.9976,-9.168,-1.379,166.3
1986.400034767,0.0244,-0.1602,0.998,-9.163,-1.384,166.3
1986.50003486,0.0249,-0.1606,0.9985,-9.163,-1.384,166.3
1986.600034934,0.0239,-0.1611,0.998,-9.163,-1.384,166.3
1986.700185675,0.0239,-0.1606,0.9985,-9.163,-1.384,166.3
1986.800185749,0.0239,-0.1606,0.9985,-9.163,-1.384,166.3
1986.900975863,0.0249,-0.1606,0.9976,-9.163,-1.384,166.3
1987.000975882,0.0239,-0.1606,0.998,-9.163,-1.384,166.3
1987.100975937,0.0239,-0.1611,0.9985,-9.163,-1.379,166.3
1987.20097603,0.0239,-0.1611,0.998,-9.168,-1.379,166.3
1987.300976085,0.0239,-0.1606,0.9976,-9.168,-1.379,166.3
1987.400976178,0.0244,-0.1611,0.9976,-9.168,-1.379,166.3
1987.500976252,0.0244,-0.1606,0.9976,-9.168,-1.379,166.3
1987.600976271,0.0244,-0.1616,0.9985,-9.168,-1.379,166.3
1987.700976326,0.0244,-0.1606,0.9971,-9.168,-1.379,166.3
1987.800976382,0.0244,-0.1606,0.9985,-9.168,-1.379,166.3
1987.900976456,0.0244,-0.1616,0.998,-9.168,-1.379,166.3
1988.00097653,0.0234,-0.1606,0.998,-9.168,-1.379,166.3
1988.100976549,0.0249,-0.1606,0.998,-9.168,-1.379,166.3
1988.200976604,0.0239,-0.1611,0.9976,-9.168,-1.384,166.3
1988.300976715,0.0239,-0.1611,0.9985,-9.168,-1.384,166.3
1988.400976752,0.0244,-0.1606,0.9985,-9.168,-1.379,166.3
1988.502062238,0.0239,-0.1606,0.9976,-9.168,-1.384,166.3
1988.602062275,0.0249,-0.1611,0.9985,-9.168,-1.379,166.3
1988.702062349,0.0244,-0.1602,0.999,-9.163,-1.384,166.3
1988.802062442,0.0239,-0.1606,0.9976,-9.163,-1.384,166.3
1988.90206246,0.0244,-0.1611,0.9985,-9.163,-1.384,166.3
1989.002062497,0.0239,-0.1611,0.9976,-9.163,-1.384,166.3
1989.10432682,0.0244,-0.1606,0.9985,-9.163,-1.384,166.3
1989.204326839,0.0239,-0.1611,0.9976,-9.163,-1.384,166.3
1989.30432695,0.0244,-0.1621,0.999,-9.163,-1.379,166.3
1989.404327024,0.0244,-0.1602,0.9985,-9.163,-1.379,166.3
1989.504327061,0.0239,-0.1616,0.9985,-9.163,-1.379,166.3
1989.60432708,0.0239,-0.1611,0.998,-9.163,-1.379,166.3
1989.704327191,0.0239,-0.1611,0.998,-9.163,-1.379,166.3
1989.804327302,0.0239,-0.1606,0.9976,-9.163,-1.384,166.3
1989.904327358,0.0239,-0.1611,0.9971,-9.163,-1.384,166.3
1990.004327469,0.0239,-0.1606,0.999,-9.163,-1.384,166.3
1990.104327562,0.0244,-0.1597,0.998,-9.163,-1.384,166.3
1990.204327617,0.0244,-0.1611,0.9985,-9.163,-1.384,166.3
1990.304327691,0.0244,-0.1606,0.998,-9.163,-1.384,166.3
1990.404327802,0.0249,-0.1611,0.998,-9.163,-1.384,166.3
1990.504327877,0.0244,-0.1616,0.998,-9.163,-1.384,166.3
1990.604327914,0.0249,-0.1606,0.9985,-9.163,-1.384,166.3
1990.704327988,0.0244,-0.1611,0.9971,-9.163,-1.384,166.3
1990.80432808,0.0239,-0.1611,0.9976,-9.163,-1.384,166.3
1990.904328136,0.0244,-0.1606,0.999,-9.163,-1.384,166.3
1991.004328192,0.0234,-0.1616,0.9946,-9.163,-1.384,166.3
1991.104328229,0.0239,-0.1611,0.9966,-9.163,-1.384,166.3
1991.204328266,0.0244,-0.1611,0.9985,-9.163,-1.384,166.3
1991.304328266,0.0244,-0.1611,0.9985,-9.168,-1.384,166.3
1991.404328322,0.0244,-0.1602,0.998,-9.168,-1.384,166.3
1991.504328396,0.0239,-0.1616,0.998,-9.168,-1.384,166.3
1991.604328433,0.0244,-0.1611,0.9976,-9.168,-1.384,166.3
1991.70432847,0.0244,-0.1606,0.9976,-9.168,-1.384,166.3
1991.804328526,0.0244,-0.1602,0.998,-9.168,-1.384,166.3
1991.904328581,0.0244,-0.1602,0.998,-9.168,-1.384,166.3
1992.004328674,0.0244,-0.1611,0.998,-9.168,-1.384,166.3
1992.104328766,0.0239,-0.1611,0.9976,-9.168,-1.384,166.3
1992.204328767,0.0249,-0.1606,0.998,-9.168,-1.384,166.3
1992.304328878,0.0244,-0.1611,0.998,-9.168,-1.384,166.3
1992.404328952,0.0249,-0.1606,0.9985,-9.168,-1.384,166.3
1992.504329007,0.0239,-0.1611,0.998,-9.168,-1.384,166.3
1992.6043291,0.0244,-0.1611,0.9976,-9.168,-1.384,166.3
1992.704329174,0.0244,-0.1606,0.998,-9.168,-1.384,166.3
1992.804329248,0.0244,-0.1606,0.998,-9.168,-1.384,166.3
1992.904329323,0.0249,-0.1606,0.998,-9.168,-1.384,166.3
1993.004329378,0.0249,-0.1621,0.9985,-9.168,-1.384,166.3
1993.104329415,0.0249,-0.1611,0.9985,-9.168,-1.384,166.3
1993.204329527,0.0239,-0.1602,0.9995,-9.168,-1.384,166.3
1993.304329601,0.0234,-0.1606,0.9985,-9.168,-1.384,166.3
1993.404329712,0.0244,-0.1606,0.998,-9.168,-1.384,166.3
1993.504329786,0.0244,-0.1606,0.998,-9.168,-1.384,166.3
1993.604329842,0.0244,-0.1602,0.9971,-9.168,-1.384,166.3
1993.704329842,0.0244,-0.1616,0.998,-9.168,-1.384,166.3
1993.804329897,0.0244,-0.1602,0.998,-9.168,-1.384,166.3
1993.904329972,0.0244,-0.1606,0.9971,-9.168,-1.384,166.3
1994.004330027,0.0239,-0.1611,0.9985,-9.168,-1.384,166.3
1994.104330046,0.0244,-0.1611,0.998,-9.168,-1.384,166.3
1994.204330064,0.0234,-0.1606,0.998,-9.168,-1.384,166.3
1994.304330157,0.0239,-0.1606,0.9976,-9.163,-1.384,166.3
1994.404330268,0.0239,-0.1606,0.9976,-9.163,-1.384,166.3
1994.504330343,0.0244,-0.1611,0.9976,-9.163,-1.384,166.3
1994.60433038,0.0234,-0.1602,0.998,-9.163,-1.384,166.3
1994.704330435,0.0239,-0.1606,0.998,-9.168,-1.384,166.3
1994.80433051,0.0244,-0.1606,0.998,-9.168,-1.379,166.3
1994.904330565,0.0249,-0.1606,0.9971,-9.168,-1.384,166.3
1995.004330621,0.0239,-0.1611,0.998,-9.168,-1.384,166.3
1995.104330714,0.0234,-0.1606,0.998,-9.168,-1.384,166.3
1995.204330788,0.0239,-0.1611,0.9976,-9.168,-1.384,166.3
1995.304330899,0.0244,-0.1606,0.9985,-9.168,-1.384,166.3
1995.404330992,0.0244,-0.1606,0.998,-9.168,-1.384,166.3
1995.504331084,0.0244,-0.1606,0.998,-9.163,-1.384,166.3
1995.604331121,0.0254,-0.1606,0.9971,-9.163,-1.384,166.3
1995.704331214,0.0244,-0.1606,0.9985,-9.163,-1.384,166.3
1995.804331233,0.0239,-0.1602,0.998,-9.163,-1.384,166.3
1995.904331344,0.0239,-0.1606,0.999,-9.163,-1.384,166.3
1996.004331344,0.0239,-0.1606,0.998,-9.163,-1.384,166.3
1996.104331437,0.0244,-0.1606,0.9976,-9.163,-1.384,166.3
1996.204331437,0.0249,-0.1611,0.9971,-9.163,-1.384,166.3
1996.30561946,0.0239,-0.1611,0.998,-9.163,-1.384,166.3
1996.405619461,0.0244,-0.1611,0.998,-9.163,-1.384,166.3
1996.505619498,0.0244,-0.1611,0.9976,-9.168,-1.384,166.3
1996.605619535,0.0239,-0.1611,0.9971,-9.168,-1.384,166.3
1996.705619628,0.0244,-0.1606,0.9976,-9.168,-1.384,166.3
1996.806816799,0.0244,-0.1606,0.9976,-9.168,-1.384,166.3
1996.906816817,0.0254,-0.1611,0.9976,-9.168,-1.384,166.3
1997.006816892,0.0239,-0.1606,0.9976,-9.168,-1.384,166.3
1997.107338875,0.0244,-0.1611,0.9976,-9.168,-1.384,166.3
1997.207338894,0.0249,-0.1606,0.998,-9.168,-1.384,166.3
1997.307338968,0.0239,-0.1606,0.9971,-9.168,-1.384,166.3
1997.407339098,0.0234,-0.1602,0.9976,-9.168,-1.384,166.3
1997.507339209,0.0239,-0.1606,0.998,-9.168,-1.384,166.3
1997.607339228,0.0234,-0.1606,0.998,-9.168,-1.379,166.3
1997.707339265,0.0234,-0.1602,0.9971,-9.168,-1.379,166.3
1997.807339284,0.0239,-0.1616,0.9985,-9.168,-1.379,166.3
1997.907339284,0.0249,-0.1611,0.998,-9.168,-1.379,166.3
1998.007339302,0.0239,-0.1602,0.9985,-9.168,-1.384,166.3
1998.107339377,0.0239,-0.1611,0.998,-9.163,-1.384,166.3
1998.207339414,0.0239,-0.1606,0.9985,-9.163,-1.379,166.3
1998.307339544,0.0239,-0.1606,0.9985,-9.163,-1.379,166.3
1998.407339544,0.0239,-0.1606,0.998,-9.163,-1.379,166.3
1998.507339618,0.0239,-0.1606,0.9976,-9.163,-1.379,166.3
1998.607339655,0.0244,-0.1606,0.998,-9.163,-1.379,166.3
1998.707339785,0.0239,-0.1611,0.9976,-9.163,-1.379,166.3
1998.807339878,0.0239,-0.1597,0.998,-9.163,-1.379,166.3
1998.90733997,0.0244,-0.1611,0.9976,-9.163,-1.379,166.3
1999.007340045,0.0244,-0.1606,0.999,-9.163,-1.379,166.3
1999.107340063,0.0239,-0.1606,0.999,-9.163,-1.379,166.3
1999.2073401,0.0249,-0.1611,0.9985,-9.163,-1.379,166.3
1999.307340193,0.0249,-0.1611,0.9971,-9.163,-1.379,166.3
1999.407340304,0.0239,-0.1611,0.998,-9.163,-1.379,166.3
1999.507340379,0.0249,-0.1606,0.9985,-9.163,-1.379,166.3
1999.60734049,0.0239,-0.1616,0.998,-9.163,-1.379,166.3
1999.707340583,0.0239,-0.1606,0.9985,-9.163,-1.379,166.3
1999.807340601,0.0249,-0.1606,0.9985,-9.163,-1.379,166.3
1999.907340602,0.0244,-0.1611,0.9976,-9.163,-1.379,166.3
2000.007340602,0.0239,-0.1606,0.9971,-9.163,-1.379,166.3
2000.107345269,0.0239,-0.1611,0.998,-9.163,-1.379,166.3
2000.207345361,0.0239,-0.1611,0.998,-9.163,-1.379,166.3
2000.307345454,0.0239,-0.1611,0.9976,-9.163,-1.379,166.3
2000.40734551,0.0249,-0.1606,0.9976,-9.163,-1.379,166.3
2000.507345621,0.0249,-0.1602,0.9976,-9.163,-1.379,166.3
2000.607345677,0.0244,-0.1616,0.998,-9.163,-1.384,166.3
2000.707345696,0.0239,-0.1606,0.998,-9.163,-1.384,166.3
2000.80734577,0.0239,-0.1611,0.9971,-9.163,-1.384,166.3
2000.907345844,0.0234,-0.1606,0.9971,-9.163,-1.384,166.3
2001.007345863,0.0239,-0.1606,0.998,-9.163,-1.384,166.3
2001.1073459,0.0244,-0.1606,0.9985,-9.163,-1.384,166.3
2001.207345956,0.0239,-0.1616,0.998,-9.163,-1.384,166.3
2001.307345993,0.0239,-0.1611,0.9985,-9.163,-1.379,166.3
2001.407346049,0.0249,-0.1606,0.9985,-9.168,-1.379,166.3
2001.507346049,0.0239,-0.1606,0.9976,-9.168,-1.384,166.3
2001.60734616,0.0234,-0.1606,0.998,-9.168,-1.384,166.3
2001.70734616,0.0234,-0.1602,0.998,-9.168,-1.384,166.3
2001.807346216,0.0244,-0.1611,0.998,-9.163,-1.384,166.3
2001.90734629,0.0239,-0.1597,0.998,-9.163,-1.379,166.3
2002.007346383,0.0244,-0.1606,0.9985,-9.163,-1.379,166.3
2002.107346476,0.0244,-0.1606,0.9985,-9.163,-1.379,166.3
2002.207346476,0.0249,-0.1606,0.9976,-9.163,-1.379,166.3
2002.307346587,0.0234,-0.1606,0.998,-9.163,-1.379,166.3
2002.407346625,0.0239,-0.1606,0.9985,-9.163,-1.379,166.3
2002.507346625,0.0234,-0.1606,0.998,-9.163,-1.379,166.3
2002.607346681,0.0249,-0.1606,0.9976,-9.163,-1.379,166.3
2002.707346718,0.0244,-0.1616,0.998,-9.168,-1.379,166.3
2002.807346737,0.0239,-0.1611,0.998,-9.168,-1.379,166.3
2002.907346755,0.0239,-0.1611,0.9985,-9.168,-1.379,166.3
2003.007346811,0.0244,-0.1602,0.998,-9.168,-1.379,166.3
2003.10734683,0.0249,-0.1616,0.9976,-9.168,-1.379,166.3
2003.207346941,0.0239,-0.1602,0.998,-9.168,-1.379,166.3
2003.307347034,0.0244,-0.1611,0.998,-9.168,-1.379,166.3
2003.407347108,0.0239,-0.1606,0.998,-9.168,-1.379,166.3
2003.507347182,0.0234,-0.1616,0.9985,-9.168,-1.379,166.3
2003.607347257,0.0239,-0.1616,0.998,-9.168,-1.379,166.3
2003.70734735,0.0244,-0.1616,0.998,-9.168,-1.379,166.3
2003.807347387,0.0244,-0.1606,0.9971,-9.168,-1.379,166.3
2003.907347461,0.0244,-0.1606,0.998,-9.168,-1.379,166.3
2004.007347517,0.0244,-0.1611,0.999,-9.168,-1.379,166.3
2004.107347573,0.0239,-0.1606,0.9971,-9.168,-1.379,166.3
2004.207347573,0.0234,-0.1602,0.9976,-9.168,-1.379,166.3
2004.30734761,0.0234,-0.1606,0.998,-9.168,-1.379,166.3
2004.407347703,0.0244,-0.1616,0.9976,-9.168,-1.379,166.3
2004.507347796,0.0239,-0.1602,0.9976,-9.168,-1.379,166.3
2004.607347796,0.0239,-0.1602,0.999,-9.168,-1.379,166.3
2004.70734787,0.0249,-0.1597,0.9976,-9.168,-1.379,166.3
2004.807348945,0.0239,-0.1616,0.9985,-9.168,-1.379,166.3
2004.907351019,0.0239,-0.1616,0.9995,-9.168,-1.379,166.3
2005.007351149,0.0239,-0.1606,0.998,-9.168,-1.379,166.3
2005.107351223,0.0239,-0.1606,0.998,-9.168,-1.379,166.3
2005.207351297,0.0249,-0.1597,0.998,-9.168,-1.379,166.3
2005.307358446,0.0234,-0.1611,0.998,-9.163,-1.379,166.3
2005.407358539,0.0244,-0.1606,0.9976,-9.163,-1.379,166.3
2005.507358576,0.0244,-0.1602,0.9985,-9.163,-1.379,166.3
2005.607358576,0.0234,-0.1606,0.9985,-9.163,-1.379,166.3
2005.707358669,0.0244,-0.1606,0.999,-9.168,-1.379,166.3
2005.807358706,0.0244,-0.1611,0.9985,-9.168,-1.379,166.3
2005.907358873,0.0244,-0.1611,0.998,-9.168,-1.379,166.3
2006.007358947,0.0244,-0.1611,0.9966,-9.168,-1.379,166.3
2006.10735904,0.0244,-0.1611,0.998,-9.168,-1.379,166.3
2006.207359059,0.0249,-0.1606,0.998,-9.168,-1.379,166.3
2006.307359078,0.0249,-0.1611,0.998,-9.168,-1.379,166.3
2006.407359134,0.0239,-0.1606,0.9976,-9.168,-1.379,166.3
2006.507359838,0.0249,-0.1597,0.9985,-9.168,-1.384,166.3
2006.607359875,0.0239,-0.1606,0.9976,-9.168,-1.384,166.3
2006.707359912,0.0244,-0.1611,0.998,-9.168,-1.384,166.3
2006.807359986,0.0239,-0.1602,0.998,-9.168,-1.384,166.3
2006.907359987,0.0249,-0.1606,0.998,-9.168,-1.384,166.3
2007.007360061,0.0244,-0.1611,0.9966,-9.168,-1.384,166.3
2007.107360172,0.0244,-0.1602,0.998,-9.168,-1.384,166.3
2007.207360191,0.0239,-0.1611,0.9976,-9.168,-1.384,166.3
2007.307360228,0.0239,-0.1602,0.998,-9.163,-1.384,166.3
2007.407360266,0.0234,-0.1606,0.998,-9.163,-1.384,166.3
2007.507360322,0.0244,-0.1602,0.9985,-9.163,-1.384,166.3
2007.607360433,0.0239,-0.1616,0.9976,-9.163,-1.384,166.3
2007.707363915,0.0234,-0.1606,0.998,-9.163,-1.384,166.3
2007.807364008,0.0229,-0.1606,0.998,-9.163,-1.384,166.3
2007.907364063,0.0239,-0.1606,0.998,-9.163,-1.384,166.3
2008.007364064,0.0239,-0.1611,0.9985,-9.163,-1.379,166.3
2008.107364101,0.0239,-0.1616,0.998,-9.163,-1.379,166.3
2008.207369472,0.0244,-0.1606,0.998,-9.163,-1.379,166.3
2008.307369546,0.0244,-0.1611,0.998,-9.163,-1.379,166.3
2008.407369657,0.0239,-0.1602,0.9976,-9.163,-1.379,166.3
2008.507369713,0.0249,-0.1616,0.998,-9.163,-1.379,166.3
2008.60736975,0.0239,-0.1602,0.998,-9.163,-1.379,166.3
2008.707369843,0.0239,-0.1602,0.9971,-9.163,-1.379,166.3
2008.807369918,0.0244,-0.1611,0.9985,-9.163,-1.379,166.3
2008.907369918,0.0244,-0.1602,0.998,-9.168,-1.379,166.3
2009.007369974,0.0239,-0.1611,0.9985,-9.168,-1.379,166.3
2009.107375326,0.0249,-0.1611,0.9971,-9.168,-1.379,166.3
2009.207379974,0.0239,-0.1611,0.9976,-9.168,-1.379,166.3
2009.307380086,0.0244,-0.1597,0.998,-9.168,-1.379,166.3
2009.407380086,0.0244,-0.1606,0.999,-9.168,-1.379,166.3
2009.507380179,0.0239,-0.1606,0.998,-9.168,-1.379,166.3
2009.607380272,0.0244,-0.1602,0.999,-9.163,-1.379,166.3
2009.707380309,0.0239,-0.1611,0.998,-9.163,-1.379,166.3
2009.807380309,0.0234,-0.1606,0.998,-9.163,-1.379,166.3
2009.907380365,0.0244,-0.1606,0.9966,-9.163,-1.379,166.3
2010.007380421,0.0239,-0.1616,0.999,-9.163,-1.379,166.3
2010.107380458,0.0244,-0.1611,0.998,-9.163,-1.379,166.3
2010.207380533,0.0249,-0.1616,0.998,-9.163,-1.379,166.3
2010.307380626,0.0244,-0.1606,0.998,-9.168,-1.379,166.3
2010.4073807,0.0234,-0.1606,0.998,-9.168,-1.379,166.3
2010.507380756,0.0234,-0.1606,0.9985,-9.168,-1.379,166.3
2010.607380812,0.0234,-0.1611,0.9985,-9.168,-1.379,166.3
2010.707380849,0.0239,-0.1616,0.998,-9.168,-1.379,166.3
2010.807380849,0.0244,-0.1611,0.998,-9.168,-1.379,166.3
2010.907380868,0.0244,-0.1597,0.998,-9.168,-1.379,166.3
2011.007380887,0.0244,-0.1602,0.999,-9.168,-1.379,166.3
2011.10738435,0.0239,-0.1606,0.9985,-9.168,-1.379,166.3
2011.207384443,0.0229,-0.1611,0.9976,-9.168,-1.379,166.3
2011.307384499,0.0239,-0.1606,0.998,-9.168,-1.379,166.3
2011.40738474,0.0234,-0.1611,0.9985,-9.168,-1.379,166.3
2011.507384777,0.0244,-0.1616,0.9976,-9.168,-1.379,166.3
2011.607384796,0.0244,-0.1606,0.9976,-9.168,-1.384,166.3
2011.707384834,0.0249,-0.1611,0.998,-9.168,-1.384,166.3
2011.807386334,0.0244,-0.1602,0.998,-9.168,-1.384,166.3
2011.907386427,0.0244,-0.1611,0.9976,-9.168,-1.384,166.3
2012.007386427,0.0239,-0.1606,0.998,-9.168,-1.384,166.3
2012.107386483,0.0239,-0.1611,0.998,-9.168,-1.384,166.3
2012.207391298,0.0239,-0.1611,0.9985,-9.168,-1.379,166.3
2012.307391391,0.0239,-0.1616,0.999,-9.168,-1.379,166.3
2012.407391502,0.0229,-0.1611,0.9976,-9.168,-1.379,166.3
2012.507391503,0.0239,-0.1606,0.9976,-9.168,-1.379,166.3
2012.607391614,0.0244,-0.1602,0.9985,-9.168,-1.379,166.3
2012.707391633,0.0244,-0.1611,0.9976,-9.168,-1.379,166.3
2012.807391652,0.0239,-0.1611,0.998,-9.168,-1.379,166.3
2012.907391763,0.0239,-0.1611,0.998,-9.168,-1.379,166.3
2013.007391801,0.0254,-0.1611,0.9971,-9.168,-1.379,166.3
2013.107391838,0.0244,-0.1606,0.9985,-9.168,-1.379,166.3
2013.207391949,0.0249,-0.1602,0.998,-9.168,-1.379,166.3
2013.307392005,0.0244,-0.1606,0.9985,-9.168,-1.379,166.3
2013.407392117,0.0234,-0.1611,0.998,-9.168,-1.384,166.3
2013.507392117,0.0244,-0.1616,0.999,-9.168,-1.384,166.3
2013.607392154,0.0249,-0.1611,0.9976,-9.168,-1.384,166.3
2013.707392173,0.0244,-0.1602,0.9976,-9.168,-1.384,166.3
2013.807392192,0.0244,-0.1606,0.9985,-9.168,-1.384,166.3
2013.907392304,0.0254,-0.1606,0.998,-9.168,-1.384,166.3
2014.007392341,0.0244,-0.1602,0.9985,-9.168,-1.384,166.3
2014.107392471,0.0234,-0.1611,0.998,-9.168,-1.384,166.3
2014.20739249,0.0239,-0.1611,0.9976,-9.168,-1.384,166.3
2014.307392546,0.0244,-0.1611,0.998,-9.168,-1.384,166.3
2014.40739262,0.0239,-0.1606,0.9976,-9.168,-1.384,166.3
2014.507392713,0.0244,-0.1606,0.998,-9.168,-1.384,166.3
2014.607392806,0.0244,-0.1606,0.9971,-9.168,-1.384,166.3
2014.70739364,0.0239,-0.1621,0.9976,-9.168,-1.384,166.3
2014.807393658,0.0239,-0.1611,0.999,-9.168,-1.384,166.3
2014.907393659,0.0239,-0.1606,0.9976,-9.168,-1.384,166.3
2015.007393715,0.0244,-0.1606,0.998,-9.168,-1.384,166.3
2015.107393826,0.0239,-0.1611,0.998,-9.168,-1.384,166.3
2015.207393882,0.0244,-0.1606,0.9985,-9.168,-1.384,166.3
2015.307393975,0.0244,-0.1611,0.9985,-9.168,-1.384,166.3
2015.407394049,0.0239,-0.1611,0.9976,-9.168,-1.384,166.3
2015.507394068,0.0239,-0.1606,0.999,-9.168,-1.384,166.3
2015.607394087,0.0249,-0.1611,0.998,-9.168,-1.384,166.3
2015.70739418,0.0234,-0.1606,0.9976,-9.168,-1.384,166.3
2015.807394236,0.0239,-0.1611,0.999,-9.168,-1.384,166.3
2015.907394236,0.0244,-0.1611,0.9985,-9.168,-1.384,166.3
2016.007394311,0.0244,-0.1606,0.998,-9.168,-1.384,166.3
2016.107398626,0.0244,-0.1611,0.9976,-9.168,-1.384,166.3
2016.207400404,0.0234,-0.1606,0.9971,-9.168,-1.384,166.3
2016.30740046,0.0239,-0.1611,0.9976,-9.168,-1.384,166.3
2016.407400516,0.0244,-0.1602,0.9976,-9.168,-1.384,166.3
2016.507400535,0.0244,-0.1606,0.998,-9.168,-1.379,166.3
2016.607400591,0.0244,-0.1611,0.998,-9.168,-1.379,166.3
2016.707400665,0.0244,-0.1611,0.998,-9.168,-1.379,166.3
2016.807400721,0.0249,-0.1602,0.998,-9.168,-1.384,166.3
2016.907400759,0.0249,-0.1606,0.9976,-9.168,-1.384,166.3
2017.007400796,0.0234,-0.1606,0.9976,-9.168,-1.384,166.3
2017.107400815,0.0239,-0.1602,0.998,-9.168,-1.384,166.3
2017.207400834,0.0239,-0.1602,0.9976,-9.168,-1.379,166.3
2017.307405908,0.0254,-0.1606,0.9976,-9.168,-1.384,166.3
2017.407406001,0.0239,-0.1611,0.9971,-9.168,-1.384,166.3
2017.50740739,0.0249,-0.1611,0.9976,-9.168,-1.384,166.3
2017.607407483,0.0239,-0.1606,0.9966,-9.168,-1.384,166.3
2017.707407521,0.0239,-0.1606,0.9976,-9.168,-1.384,166.3
2017.807410688,0.0244,-0.1606,0.998,-9.168,-1.384,166.3
2017.907410707,0.0234,-0.1606,0.9985,-9.168,-1.384,166.3
2018.007412559,0.0239,-0.1606,0.998,-9.168,-1.379,166.3
2018.107412578,0.0234,-0.1606,0.9985,-9.168,-1.379,166.3
2018.207415689,0.0239,-0.1611,0.9971,-9.168,-1.379,166.3
2018.307415708,0.0244,-0.1611,0.9971,-9.168,-1.379,166.3
