Time,AccX,AccY,AccZ,AngleX,AngleY,AngleZ
16892.470047317,,,,-8.438,-3.384,165.839
16892.570047342,0.0601,-0.1494,0.9985,-8.438,-3.384,165.839
16892.670047349,0.0601,-0.1479,0.999,-8.438,-3.384,165.839
16892.770047448,0.0586,-0.1479,0.9995,-8.438,-3.384,165.839
16892.870047455,0.0586,-0.1479,1.0005,-8.438,-3.384,165.839
16892.970047461,0.0596,-0.1479,1.001,-8.438,-3.384,165.839
16893.070047542,0.0591,-0.1475,1.0005,-8.438,-3.384,165.839
16893.170047604,0.0586,-0.1475,1.0005,-8.438,-3.384,165.839
16893.270047666,0.0581,-0.1475,1.0029,-8.438,-3.384,165.839
16893.370047747,0.0586,-0.1484,1.0,-8.438,-3.384,165.839
16893.470047809,0.0576,-0.1465,1.0029,-8.438,-3.384,165.839
16893.570047816,0.0591,-0.1489,0.999,-8.438,-3.384,165.839
16893.670047823,0.0581,-0.1509,1.0,-8.438,-3.384,165.839
16893.770047885,0.0601,-0.1494,0.998,-8.438,-3.384,165.839
16893.870047984,0.0571,-0.1504,1.001,-8.443,-3.384,165.839
16893.970048084,0.0601,-0.1465,0.999,-8.432,-3.384,165.839
16894.070048183,0.0591,-0.1499,0.9995,-8.432,-3.384,165.839
16894.170048264,0.0586,-0.1475,1.0,-8.432,-3.389,165.839
16894.2700554,0.0601,-0.1479,0.9995,-8.432,-3.389,165.839
16894.3700555,0.0605,-0.1484,0.9985,-8.432,-3.389,165.839
16894.470055525,0.0591,-0.1484,0.9995,-8.432,-3.389,165.839
16894.570055569,0.0601,-0.1484,0.999,-8.438,-3.389,165.839
16894.67005565,0.0601,-0.1484,1.0,-8.438,-3.389,165.839
16894.770055693,0.0596,-0.1445,0.9985,-8.421,-3.395,165.839
16894.8700557,0.0601,-0.1484,0.998,-8.421,-3.395,165.839
16894.970058763,0.0605,-0.1484,0.9995,-8.427,-3.395,165.839
16895.070063547,0.0591,-0.1475,1.0015,-8.432,-3.395,165.839
16895.170066943,0.0605,-0.1504,1.0005,-8.432,-3.395,165.839
16895.270070265,0.0605,-0.1494,0.9985,-8.432,-3.395,165.839
16895.37007592,0.0615,-0.1484,0.9966,-8.432,-3.395,165.839
16895.470082038,0.061,-0.1475,0.9956,-8.438,-3.395,165.839
16895.570087415,0.0605,-0.1475,0.9985,-8.438,-3.395,165.839
16895.670087422,0.0601,-0.1484,0.999,-8.438,-3.395,165.839
16895.770087466,0.0605,-0.147,0.999,-8.438,-3.395,165.839
16895.870087547,0.0596,-0.146,0.9976,-8.438,-3.395,165.839
16895.970087572,0.0605,-0.1484,0.9985,-8.443,-3.395,165.839
16896.070087653,0.061,-0.1519,0.999,-8.448,-3.389,165.839
16896.170087734,0.0596,-0.1479,0.9985,-8.443,-3.389,165.839
16896.270087852,0.0601,-0.1479,0.999,-8.443,-3.389,165.839
16896.370087951,0.0605,-0.1479,0.9985,-8.443,-3.389,165.839
16896.470087995,0.0605,-0.1484,0.999,-8.438,-3.395,165.839
16896.570088076,0.0601,-0.1479,1.0,-8.438,-3.395,165.839
16896.670088139,0.0596,-0.1479,0.9985,-8.438,-3.395,165.839
16896.770093739,0.0586,-0.1479,1.0,-8.438,-3.395,165.839
16896.870093857,0.0605,-0.1489,0.999,-8.443,-3.395,165.839
16896.970093864,0.0601,-0.1484,0.998,-8.443,-3.395,165.839
16897.070093982,0.0601,-0.1494,0.9995,-8.443,-3.4,165.839
16897.170094026,0.0601,-0.1489,0.999,-8.443,-3.4,165.839
16897.270094107,0.0605,-0.1494,0.999,-8.438,-3.4,165.839
16897.370094132,0.0591,-0.1484,0.999,-8.443,-3.4,165.839
16897.47009425,0.0601,-0.1494,0.9985,-8.443,-3.4,165.839
16897.570094257,0.0596,-0.1494,0.999,-8.443,-3.4,165.839
16897.670094283,0.0596,-0.1489,0.9985,-8.443,-3.406,165.839
16897.770094383,0.0601,-0.1465,0.999,-8.438,-3.4,165.839
16897.870094445,0.0601,-0.1479,0.9985,-8.443,-3.406,165.839
16897.970094452,0.0601,-0.1479,0.999,-8.443,-3.406,165.839
16898.070094533,0.0605,-0.1484,0.9985,-8.443,-3.406,165.839
16898.170094614,0.0605,-0.1489,1.0,-8.443,-3.406,165.839
16898.270094621,0.0605,-0.1479,0.9985,-8.443,-3.406,165.839
16898.370094684,0.0605,-0.1484,1.0,-8.443,-3.406,165.839
16898.470094747,0.0596,-0.1489,0.9985,-8.443,-3.406,165.839
16898.570094828,0.0601,-0.1489,0.999,-8.443,-3.406,165.839
16898.670099817,0.0596,-0.1484,0.9985,-8.443,-3.406,165.839
16898.770105361,0.0601,-0.1484,0.9995,-8.443,-3.406,165.839
16898.870109923,0.0601,-0.1499,0.998,-8.443,-3.406,165.839
16898.970110005,0.061,-0.1475,0.9985,-8.448,-3.406,165.839
16899.070110012,0.0605,-0.1494,0.9995,-8.448,-3.406,165.839
16899.17011013,0.061,-0.1489,0.999,-8.448,-3.406,165.839
16899.270110174,0.0601,-0.1484,1.0,-8.448,-3.406,165.839
16899.370110218,0.0596,-0.1489,1.0,-8.454,-3.406,165.839
16899.470110263,0.0601,-0.1489,1.0,-8.454,-3.406,165.839
16899.570110362,0.0601,-0.1489,1.0,-8.454,-3.406,165.839
16899.670112296,0.0601,-0.1484,0.999,-8.454,-3.406,165.839
16899.770118099,0.0596,-0.1494,0.999,-8.454,-3.406,165.839
16899.870124829,0.0596,-0.1494,0.9995,-8.454,-3.406,165.839
16899.970124891,0.0596,-0.1479,0.9985,-8.454,-3.406,165.839
16900.070130361,0.0605,-0.1479,0.9995,-8.454,-3.406,165.839
16900.170131498,0.0605,-0.1484,0.999,-8.454,-3.406,165.839
16900.270131543,0.0601,-0.1494,0.999,-8.454,-3.406,165.839
16900.370131605,0.0596,-0.1479,0.9985,-8.454,-3.406,165.839
16900.470131613,0.0591,-0.147,1.0005,-8.454,-3.411,165.839
16900.570131731,0.0605,-0.1479,0.999,-8.454,-3.411,165.839
16900.670131849,0.0601,-0.1479,1.0,-8.454,-3.411,165.839
16900.770132468,0.0601,-0.1484,0.999,-8.454,-3.411,165.839
16900.870136253,0.0601,-0.1479,0.999,-8.459,-3.411,165.839
16900.970140742,0.0601,-0.1494,1.0,-8.459,-3.411,165.839
16901.070140804,0.0591,-0.1484,0.999,-8.459,-3.411,165.839
16901.170140867,0.0601,-0.1489,0.9995,-8.459,-3.411,165.839
16901.270140875,0.0591,-0.1484,0.999,-8.459,-3.411,165.839
16901.370140882,0.0601,-0.1494,0.9985,-8.459,-3.411,165.839
16901.470140963,0.0601,-0.1494,1.0,-8.459,-3.406,165.839
16901.570141026,0.0596,-0.1479,0.999,-8.459,-3.406,165.839
16901.670141052,0.0601,-0.1484,0.999,-8.459,-3.406,165.839
16901.770141171,0.0601,-0.1489,0.999,-8.459,-3.406,165.839
16901.870141289,0.0596,-0.1479,0.9995,-8.459,-3.406,165.839
16901.970141389,0.0601,-0.1494,0.9995,-8.459,-3.406,165.839
16902.070141396,0.0601,-0.1489,0.999,-8.465,-3.406,165.839
16902.170141441,0.061,-0.1494,0.999,-8.465,-3.406,165.839
16902.270141522,0.0596,-0.1489,0.999,-8.465,-3.406,165.839
16902.370141567,0.0605,-0.1489,0.999,-8.465,-3.406,165.839
16902.470141648,0.0596,-0.1489,0.999,-8.465,-3.406,165.839
16902.570141748,0.0591,-0.1484,0.999,-8.465,-3.406,165.839
16902.67014183,0.0591,-0.1494,1.0005,-8.465,-3.406,165.839
16902.770141911,0.0601,-0.1484,0.9995,-8.465,-3.406,165.839
16902.870141993,0.0596,-0.1489,0.999,-8.465,-3.406,165.839
16902.970143667,0.0596,-0.1479,0.9995,-8.465,-3.406,165.839
16903.070146304,0.0605,-0.1484,0.9985,-8.465,-3.406,165.839
16903.170152293,0.0601,-0.1494,0.999,-8.465,-3.406,165.839
16903.270152411,0.0596,-0.1489,0.9995,-8.465,-3.406,165.839
16903.370152438,0.0601,-0.1489,0.999,-8.47,-3.406,165.839
16903.470152501,0.0601,-0.1489,0.999,-8.47,-3.406,165.839
16903.570152545,0.0601,-0.1479,0.999,-8.47,-3.406,165.839
16903.670152645,0.0601,-0.1499,1.0,-8.47,-3.406,165.839
16903.770152653,0.0596,-0.1484,1.0,-8.47,-3.406,165.839
16903.870159068,0.0605,-0.1489,0.9995,-8.47,-3.406,165.839
16903.970162797,0.0605,-0.1484,0.999,-8.47,-3.406,165.839
16904.070165675,0.0601,-0.1479,1.0005,-8.47,-3.411,165.839
16904.170167461,0.0591,-0.1494,0.9995,-8.47,-3.411,165.839
16904.27017519,0.0601,-0.1484,0.9985,-8.47,-3.411,165.839
16904.37018018,0.0591,-0.1489,0.999,-8.47,-3.411,165.839
16904.470180298,0.0586,-0.1484,0.9995,-8.47,-3.411,165.839
16904.57018038,0.0601,-0.1499,0.999,-8.47,-3.411,165.839
16904.670201147,0.0605,-0.1489,0.999,-8.47,-3.411,165.839
16904.770201266,0.0596,-0.1484,0.9995,-8.47,-3.411,165.839
16904.870202144,0.0601,-0.1484,0.999,-8.47,-3.411,165.839
16904.970202244,0.0605,-0.1489,0.9985,-8.47,-3.411,165.839
16905.070202344,0.0596,-0.1484,0.998,-8.47,-3.411,165.839
16905.170202407,0.0605,-0.1489,0.999,-8.47,-3.411,165.839
16905.270202507,0.0605,-0.1479,0.9985,-8.47,-3.411,165.839
16905.370202533,0.061,-0.1484,0.998,-8.47,-3.411,165.839
16905.47020256,0.061,-0.1489,0.998,-8.47,-3.411,165.839
16905.570202586,0.0605,-0.1494,0.9995,-8.47,-3.411,165.839
16905.670202668,0.0605,-0.1484,0.9995,-8.47,-3.417,165.839
16905.770202712,0.0615,-0.1484,0.9976,-8.47,-3.417,165.839
16905.870202757,0.0586,-0.1484,1.002,-8.47,-3.417,165.839
16905.970202802,0.0601,-0.1484,0.9995,-8.47,-3.417,165.839
16906.070202809,0.0601,-0.1494,0.9995,-8.47,-3.417,165.839
16906.170202854,0.0605,-0.1489,0.998,-8.47,-3.417,165.839
16906.27020288,0.0601,-0.1494,0.9995,-8.47,-3.417,165.839
16906.370202981,0.0605,-0.1484,0.999,-8.47,-3.417,165.839
16906.470203044,0.061,-0.1489,0.999,-8.47,-3.417,165.839
16906.570203163,0.0601,-0.1489,0.9995,-8.47,-3.417,165.839
16906.670203263,0.0601,-0.1479,0.9985,-8.47,-3.417,165.839
16906.770203345,0.0601,-0.1489,0.999,-8.47,-3.417,165.839
16906.870203371,0.0601,-0.1479,0.999,-8.47,-3.417,165.839
16906.970203453,0.0615,-0.1489,0.9995,-8.47,-3.417,165.839
16907.070203461,0.0586,-0.1494,0.9995,-8.47,-3.417,165.839
16907.170203469,0.0596,-0.1489,0.999,-8.47,-3.417,165.839
16907.270203587,0.0596,-0.1484,0.999,-8.47,-3.417,165.839
16907.370203632,0.0605,-0.1465,0.9971,-8.47,-3.417,165.839
16907.470203714,0.0605,-0.1489,0.9985,-8.47,-3.417,165.839
16907.570203796,0.0601,-0.1504,0.9995,-8.476,-3.417,165.839
16907.670203897,0.0615,-0.1514,0.9995,-8.47,-3.417,165.839
16907.770203923,0.061,-0.1499,0.9995,-8.47,-3.417,165.839
16907.870203931,0.0591,-0.1514,0.998,-8.47,-3.411,165.839
16907.970209309,0.0601,-0.147,0.998,-8.47,-3.417,165.839
16908.070209428,0.0601,-0.1494,1.0,-8.465,-3.417,165.839
16908.170209547,0.0605,-0.1484,1.0,-8.465,-3.417,165.839
16908.270209666,0.0601,-0.1484,1.0005,-8.465,-3.417,165.839
16908.370209729,0.061,-0.1484,0.998,-8.465,-3.417,165.844
16908.470209793,0.0596,-0.1489,0.9985,-8.465,-3.417,165.839
16908.570209893,0.0601,-0.1489,1.0,-8.465,-3.417,165.839
16908.670213475,0.0596,-0.1479,0.999,-8.465,-3.417,165.839
16908.770218428,0.0596,-0.1489,0.999,-8.465,-3.417,165.839
16908.87022351,0.0596,-0.1489,0.9995,-8.465,-3.417,165.839
16908.970225332,0.0601,-0.1489,0.9985,-8.465,-3.417,165.839
16909.07022534,0.0605,-0.1479,0.9995,-8.465,-3.417,165.839
16909.170225367,0.0596,-0.1489,0.999,-8.465,-3.417,165.839
16909.270225467,0.0591,-0.1489,0.9995,-8.465,-3.417,165.839
16909.370228364,0.0605,-0.1484,0.9985,-8.465,-3.417,165.839
16909.47023315,0.0596,-0.1499,0.999,-8.465,-3.417,165.839
16909.570239436,0.0596,-0.1489,0.999,-8.47,-3.417,165.839
16909.670245666,0.0596,-0.1489,1.0005,-8.47,-3.417,165.839
16909.77024947,0.0586,-0.1509,1.0005,-8.47,-3.417,165.839
16909.870250571,0.0601,-0.1499,1.0,-8.47,-3.417,165.839
16909.970254301,0.0591,-0.1533,1.0034,-8.47,-3.417,165.839
16910.070258809,0.0571,-0.1489,0.9985,-8.47,-3.417,165.839
16910.170258836,0.0601,-0.1484,0.999,-8.465,-3.411,165.839
16910.270258881,0.0605,-0.1494,0.9985,-8.465,-3.411,165.839
16910.370258944,0.0605,-0.1479,0.998,-8.465,-3.411,165.839
16910.470258971,0.0601,-0.1489,0.998,-8.459,-3.411,165.839
16910.570258979,0.0596,-0.1494,1.0,-8.459,-3.411,165.839
16910.670259024,0.0605,-0.1475,0.999,-8.459,-3.411,165.839
16910.770259032,0.0596,-0.1479,0.999,-8.459,-3.411,165.839
16910.870259151,0.0596,-0.1484,0.9995,-8.454,-3.411,165.839
16910.970259215,0.0601,-0.1489,0.9995,-8.454,-3.411,165.839
16911.070259297,0.0601,-0.1509,1.0,-8.459,-3.411,165.839
16911.170259416,0.0601,-0.1494,0.9995,-8.459,-3.411,165.839
16911.270259461,0.0596,-0.1484,1.0015,-8.459,-3.411,165.839
16911.370259525,0.0591,-0.1494,0.999,-8.459,-3.411,165.839
16911.470259589,0.0601,-0.1504,0.9995,-8.465,-3.411,165.839
16911.570259652,0.0601,-0.1499,0.999,-8.465,-3.411,165.839
16911.670259661,0.0596,-0.1484,0.9995,-8.465,-3.411,165.839
16911.77026841,0.0596,-0.1484,0.9985,-8.465,-3.411,165.839
16911.870268455,0.0601,-0.1499,0.9985,-8.465,-3.406,165.839
16911.970268481,0.0601,-0.1484,1.001,-8.465,-3.406,165.839
16912.070272971,0.0591,-0.1479,0.9995,-8.465,-3.406,165.839
16912.170276535,0.0605,-0.1484,0.9985,-8.465,-3.406,165.839
16912.270276561,0.0591,-0.1484,0.9995,-8.465,-3.406,165.839
16912.370276607,0.0605,-0.1489,0.9985,-8.465,-3.406,165.839
16912.470276707,0.0605,-0.1479,0.999,-8.465,-3.406,165.839
16912.57027679,0.0605,-0.1489,0.9985,-8.465,-3.406,165.839
16912.670276854,0.0596,-0.1475,0.9976,-8.465,-3.406,165.839
16912.770276899,0.0605,-0.1484,0.998,-8.459,-3.406,165.839
16912.870276926,0.0605,-0.1484,1.0,-8.459,-3.411,165.839
16912.970276971,0.0596,-0.1494,0.998,-8.459,-3.411,165.839
16913.070281109,0.0605,-0.1489,0.9985,-8.465,-3.411,165.839
16913.170283376,0.0596,-0.1494,0.999,-8.465,-3.411,165.839
16913.27028344,0.0605,-0.1479,0.9985,-8.465,-3.411,165.839
16913.370283559,0.0601,-0.1494,0.999,-8.465,-3.411,165.839
16913.470283623,0.0605,-0.1489,0.999,-8.47,-3.411,165.839
16913.570283743,0.0601,-0.1494,0.998,-8.47,-3.411,165.839
16913.67028377,0.0605,-0.1484,0.9995,-8.47,-3.411,165.839
16913.770283778,0.0605,-0.1484,0.9995,-8.47,-3.411,165.839
16913.870283879,0.0601,-0.1484,0.9995,-8.47,-3.411,165.839
16913.970283943,0.0596,-0.1484,0.9995,-8.47,-3.411,165.839
16914.070283951,0.0605,-0.1484,0.999,-8.47,-3.411,165.839
16914.170283978,0.0605,-0.1494,0.999,-8.47,-3.411,165.839
16914.270284005,0.0601,-0.1479,0.9985,-8.47,-3.417,165.839
16914.370284087,0.0601,-0.1484,0.999,-8.47,-3.417,165.839
16914.470284206,0.0601,-0.1479,0.9985,-8.47,-3.417,165.839
16914.570284307,0.0601,-0.1484,0.998,-8.47,-3.417,165.839
16914.670284334,0.0605,-0.1484,0.999,-8.47,-3.417,165.839
16914.770284398,0.0605,-0.1484,0.9985,-8.47,-3.417,165.839
16914.870284444,0.0605,-0.1484,0.9995,-8.47,-3.417,165.839
16914.970284563,0.0605,-0.1489,1.0,-8.47,-3.417,165.839
16915.070284609,0.0605,-0.1489,0.9995,-8.47,-3.417,165.839
16915.17028471,0.0605,-0.1479,0.9985,-8.47,-3.417,165.839
16915.270284792,0.0596,-0.1484,0.9995,-8.47,-3.417,165.839
16915.370284801,0.0601,-0.1479,0.9985,-8.47,-3.417,165.839
16915.47028492,0.0596,-0.1489,0.9995,-8.47,-3.417,165.839
16915.570284929,0.0596,-0.1489,0.999,-8.47,-3.417,165.839
16915.670284993,0.0601,-0.1484,0.9985,-8.47,-3.417,165.839
16915.770285001,0.0605,-0.1489,0.999,-8.47,-3.417,165.839
16915.870285121,0.0596,-0.1479,0.9995,-8.465,-3.417,165.839
16915.970285185,0.0596,-0.1484,0.999,-8.465,-3.417,165.839
16916.070285267,0.0601,-0.1484,0.9995,-8.465,-3.417,165.839
16916.170285368,0.0596,-0.1479,1.0,-8.465,-3.417,165.839
16916.270285451,0.0601,-0.1489,1.0,-8.465,-3.417,165.839
16916.370285459,0.061,-0.1489,0.999,-8.465,-3.417,165.839
16916.470285523,0.0601,-0.1484,0.9985,-8.465,-3.417,165.839
16916.570285606,0.0601,-0.1484,0.999,-8.465,-3.417,165.839
16916.670289189,0.0601,-0.1489,0.9985,-8.465,-3.417,165.839
16916.770297401,0.0601,-0.1489,1.0,-8.465,-3.417,165.839
16916.870301595,0.0601,-0.1484,0.9995,-8.465,-3.417,165.839
16916.970305937,0.061,-0.1489,0.999,-8.465,-3.417,165.839
16917.070312112,0.061,-0.1489,0.999,-8.465,-3.417,165.839
16917.170318731,0.0605,-0.1484,0.9995,-8.465,-3.417,165.839
16917.270318851,0.0596,-0.1489,1.0,-8.465,-3.417,165.839
16917.370318878,0.0596,-0.1489,0.998,-8.465,-3.417,165.839
16917.470318887,0.0596,-0.1484,0.999,-8.465,-3.417,165.839
16917.570319007,0.0596,-0.1484,0.9995,-8.465,-3.417,165.839
16917.670319071,0.061,-0.1484,0.9985,-8.465,-3.417,165.839
16917.770319153,0.0605,-0.1479,0.9985,-8.465,-3.417,165.839
16917.870319199,0.0591,-0.1489,0.999,-8.465,-3.417,165.839
16917.970319263,0.0601,-0.1479,0.999,-8.465,-3.417,165.839
16918.070324253,0.0601,-0.1484,0.999,-8.465,-3.417,165.839
16918.170324318,0.0601,-0.1489,0.9985,-8.465,-3.417,165.839
16918.2703244,0.0601,-0.1484,0.999,-8.465,-3.417,165.839
16918.370324539,0.0605,-0.1484,0.999,-8.459,-3.417,165.839
16918.470324621,0.0601,-0.1479,0.999,-8.459,-3.417,165.839
16918.57032463,0.0605,-0.1484,0.999,-8.459,-3.417,165.839
16918.670324713,0.0601,-0.1484,0.9985,-8.459,-3.417,165.839
16918.770324759,0.0601,-0.1475,0.998,-8.459,-3.417,165.839
16918.870324841,0.0601,-0.1494,1.0,-8.459,-3.417,165.839
16918.970324943,0.0596,-0.1484,0.999,-8.465,-3.417,165.839
16919.070325081,0.0601,-0.1484,1.0,-8.465,-3.417,165.839
16919.17032509,0.0596,-0.1484,0.9995,-8.465,-3.417,165.839
16919.270325098,0.0591,-0.1484,0.9995,-8.465,-3.417,165.839
16919.370325218,0.0601,-0.1484,0.9985,-8.465,-3.417,165.839
16919.470328338,0.0596,-0.1484,0.9985,-8.465,-3.417,165.839
16919.57033381,0.0596,-0.1479,0.999,-8.459,-3.417,165.839
16919.670336726,0.0605,-0.1484,0.9985,-8.459,-3.417,165.839
16919.77034155,0.0605,-0.1489,0.999,-8.459,-3.417,165.839
16919.870345336,0.0605,-0.1489,0.9985,-8.459,-3.417,165.839
16919.970346493,0.0605,-0.1484,0.9995,-8.459,-3.417,165.839
16920.070352354,0.0596,-0.1484,0.9985,-8.459,-3.417,165.839
16920.170355363,0.0596,-0.1479,0.9995,-8.459,-3.417,165.839
16920.270360371,0.0596,-0.1479,0.999,-8.459,-3.417,165.839
16920.370360473,0.061,-0.1484,0.999,-8.459,-3.417,165.839
16920.470360556,0.0605,-0.1484,0.9985,-8.459,-3.417,165.839
16920.570360564,0.0601,-0.1479,0.9995,-8.459,-3.417,165.839
16920.670360666,0.0601,-0.1479,0.9985,-8.459,-3.417,165.839
16920.770360767,0.0605,-0.1475,0.999,-8.459,-3.417,165.839
16920.870360832,0.0601,-0.1479,0.9985,-8.459,-3.417,165.839
16920.970368007,0.0601,-0.1494,0.999,-8.459,-3.417,165.839
16921.070371701,0.061,-0.1489,0.9985,-8.459,-3.417,165.839
16921.170377432,0.062,-0.1475,0.9985,-8.459,-3.417,165.839
16921.270383127,0.0547,-0.1465,1.0039,-8.459,-3.417,165.839
16921.370384932,0.0596,-0.1484,0.999,-8.459,-3.417,165.839
16921.470387218,0.061,-0.1489,0.998,-8.459,-3.417,165.839
16921.570392135,0.0605,-0.1489,0.998,-8.459,-3.417,165.839
16921.670394236,0.0591,-0.1475,1.0005,-8.459,-3.417,165.839
16921.770394338,0.0605,-0.1489,0.998,-8.459,-3.417,165.839
16921.870394421,0.0596,-0.1484,0.999,-8.459,-3.417,165.839
16921.970394448,0.0596,-0.1494,0.9995,-8.459,-3.417,165.839
16922.070394457,0.061,-0.1489,1.0,-8.459,-3.417,165.839
16922.170394485,0.0596,-0.1484,0.999,-8.459,-3.417,165.839
16922.270395882,0.0605,-0.1479,0.999,-8.459,-3.417,165.839
16922.370400929,0.0605,-0.1484,0.998,-8.459,-3.417,165.839
16922.470402123,0.0596,-0.1479,0.999,-8.459,-3.417,165.839
16922.570402243,0.0601,-0.1489,0.999,-8.459,-3.417,165.839
16922.670409826,0.0615,-0.1489,0.999,-8.459,-3.417,165.839
16922.770409853,0.0591,-0.1484,0.9985,-8.459,-3.417,165.839
16922.870409955,0.0596,-0.1484,0.9985,-8.459,-3.417,165.839
16922.970410075,0.061,-0.1489,0.999,-8.459,-3.417,165.839
16923.070413158,0.0601,-0.1489,0.9985,-8.459,-3.417,165.839
16923.170416297,0.0601,-0.1484,0.9995,-8.465,-3.417,165.839
16923.270416398,0.0605,-0.1484,0.9985,-8.465,-3.417,165.839
16923.370416519,0.0601,-0.1494,0.9995,-8.465,-3.417,165.839
16923.470416639,0.061,-0.1489,0.9995,-8.465,-3.417,165.839
16923.570416666,0.0605,-0.1479,0.9995,-8.465,-3.417,165.839
16923.670416694,0.0591,-0.1484,0.9995,-8.465,-3.417,165.839
16923.770416796,0.0601,-0.1489,0.999,-8.465,-3.417,165.839
16923.870416823,0.0601,-0.1484,0.9985,-8.465,-3.417,165.839
16923.970416888,0.0605,-0.1489,0.998,-8.465,-3.417,165.839
16924.070416953,0.0605,-0.1479,0.9995,-8.465,-3.417,165.839
16924.170417036,0.0601,-0.1479,0.9985,-8.465,-3.417,165.839
16924.2704171,0.0605,-0.1489,0.9976,-8.465,-3.417,165.839
16924.370417128,0.0601,-0.1484,0.9995,-8.465,-3.422,165.839
16924.470417174,0.0601,-0.1484,0.9995,-8.465,-3.422,165.839
16924.570417239,0.0605,-0.1484,0.999,-8.47,-3.422,165.839
16924.670417341,0.0596,-0.1489,0.9985,-8.47,-3.422,165.839
16924.770417368,0.0601,-0.1484,0.9985,-8.47,-3.422,165.839
16924.870417396,0.0596,-0.1484,0.999,-8.47,-3.422,165.839
16924.970417516,0.0605,-0.1484,1.0,-8.47,-3.422,165.839
16925.0704176,0.061,-0.1489,0.9985,-8.47,-3.422,165.839
16925.170421201,0.0596,-0.1484,0.9995,-8.47,-3.422,165.839
16925.270426988,0.0591,-0.1489,0.9985,-8.47,-3.417,165.839
16925.370429738,0.0601,-0.1489,0.9995,-8.47,-3.417,165.839
16925.470433951,0.0605,-0.1484,0.9985,-8.47,-3.422,165.839
16925.570438812,0.0605,-0.1489,0.999,-8.47,-3.422,165.839
16925.670441007,0.0596,-0.1484,0.999,-8.47,-3.422,165.839
16925.770441109,0.0601,-0.1484,0.9995,-8.47,-3.422,165.839
16925.870441192,0.0601,-0.1489,0.9985,-8.47,-3.422,165.839
16925.97044122,0.0605,-0.1484,0.999,-8.47,-3.422,165.839
16926.070441284,0.0596,-0.1484,0.9985,-8.47,-3.422,165.839
16926.170441294,0.0601,-0.1479,0.9985,-8.465,-3.422,165.839
16926.270441377,0.0601,-0.1484,0.9995,-8.465,-3.422,165.839
16926.370444608,0.0596,-0.1499,0.999,-8.465,-3.422,165.839
16926.470451192,0.0601,-0.1489,0.9985,-8.465,-3.422,165.839
16926.570451201,0.061,-0.1489,0.9985,-8.465,-3.422,165.839
16926.670451322,0.0605,-0.1479,0.9985,-8.465,-3.422,165.839
16926.770451368,0.0596,-0.1484,0.999,-8.465,-3.422,165.839
16926.870453766,0.0605,-0.1489,0.999,-8.47,-3.422,165.839
16926.97046009,0.0601,-0.1489,0.999,-8.47,-3.422,165.839
16927.070462581,0.0605,-0.1484,0.9985,-8.47,-3.422,165.839
16927.170462609,0.0605,-0.1484,0.9985,-8.47,-3.422,165.839
16927.270462637,0.0596,-0.1489,0.9985,-8.465,-3.422,165.839
16927.370462757,0.0605,-0.1479,0.999,-8.465,-3.422,165.839
16927.470462767,0.0591,-0.1489,0.999,-8.465,-3.422,165.839
16927.570462776,0.0605,-0.1479,0.999,-8.465,-3.422,165.839
16927.670462841,0.0596,-0.1484,0.999,-8.465,-3.422,165.839
16927.77046285,0.061,-0.1484,0.999,-8.465,-3.422,165.839
16927.870462952,0.0601,-0.1484,1.0,-8.465,-3.422,165.839
16927.970463017,0.061,-0.1489,0.9985,-8.465,-3.422,165.839
16928.070463101,0.0605,-0.1499,0.9976,-8.465,-3.422,165.839
16928.170463129,0.0605,-0.1479,0.999,-8.465,-3.422,165.839
16928.270463249,0.0605,-0.1484,0.9995,-8.465,-3.422,165.839
16928.370463314,0.0601,-0.1484,0.999,-8.465,-3.422,165.839
16928.470463361,0.0596,-0.1484,0.999,-8.465,-3.422,165.839
16928.570463389,0.0605,-0.1484,0.9995,-8.465,-3.422,165.839
16928.670463435,0.0605,-0.1484,0.999,-8.465,-3.422,165.839
16928.7704635,0.0601,-0.1484,0.998,-8.465,-3.422,165.839
16928.870463547,0.0605,-0.1494,0.999,-8.465,-3.422,165.839
16928.970463556,0.0601,-0.1479,0.999,-8.465,-3.422,165.839
16929.070463677,0.0605,-0.1489,0.9995,-8.465,-3.422,165.839
16929.170463723,0.0601,-0.1484,0.999,-8.465,-3.422,165.839
16929.270463733,0.0601,-0.1484,0.999,-8.465,-3.422,165.839
16929.370463816,0.0601,-0.1489,0.999,-8.465,-3.422,165.839
16929.470463826,0.0601,-0.1489,0.999,-8.47,-3.422,165.839
16929.570463928,0.0601,-0.1479,0.999,-8.47,-3.422,165.839
16929.670464048,0.0605,-0.1475,0.999,-8.47,-3.422,165.839
16929.770464132,0.0601,-0.1484,0.999,-8.47,-3.422,165.839
16929.870464179,0.0596,-0.1494,1.0,-8.47,-3.422,165.839
16929.970464188,0.061,-0.1484,0.9985,-8.47,-3.422,165.839
16930.07046429,0.061,-0.1489,0.999,-8.47,-3.422,165.839
16930.170464337,0.0605,-0.1484,0.999,-8.47,-3.422,165.839
16930.270464439,0.0605,-0.1489,0.998,-8.47,-3.422,165.839
16930.37046456,0.0596,-0.1479,0.9995,-8.47,-3.422,165.839
16930.470464662,0.0605,-0.1484,0.999,-8.465,-3.422,165.839
16930.570464764,0.0601,-0.1475,0.9995,-8.465,-3.422,165.839
16930.670464774,0.0605,-0.1484,0.9995,-8.465,-3.422,165.839
16930.77046482,0.0605,-0.1479,0.999,-8.465,-3.422,165.839
16930.87046496,0.0591,-0.1489,0.9995,-8.465,-3.422,165.839
16930.970464969,0.0596,-0.1489,0.999,-8.465,-3.422,165.839
16931.070464979,0.0605,-0.1494,0.999,-8.465,-3.422,165.839
16931.170465026,0.0601,-0.1489,0.9995,-8.465,-3.422,165.839
16931.270465072,0.0601,-0.1479,1.0005,-8.465,-3.422,165.839
16931.370465137,0.0601,-0.1489,0.9985,-8.465,-3.422,165.839
16931.470465258,0.0605,-0.1489,0.9995,-8.465,-3.422,165.839
16931.570465323,0.0591,-0.1479,1.0,-8.465,-3.422,165.839
16931.670465407,0.0605,-0.1479,0.9985,-8.465,-3.422,165.839
16931.770465472,0.0615,-0.1475,0.9985,-8.465,-3.417,165.839
16931.870465575,0.0601,-0.1484,1.0,-8.465,-3.417,165.839
16931.970465621,0.0596,-0.1489,0.9985,-8.465,-3.417,165.839
16932.070465631,0.0596,-0.1489,0.999,-8.465,-3.417,165.839
16932.170465659,0.0596,-0.1484,0.9995,-8.465,-3.417,165.839
16932.270465669,0.0601,-0.1489,0.9985,-8.465,-3.417,165.839
16932.370465716,0.0605,-0.1489,0.999,-8.465,-3.417,165.839
16932.470465763,0.0596,-0.1489,0.9985,-8.465,-3.417,165.839
16932.570465809,0.0601,-0.1479,0.999,-8.465,-3.417,165.839
16932.670465819,0.0605,-0.1484,0.998,-8.465,-3.417,165.839
16932.770465885,0.061,-0.1489,0.9985,-8.465,-3.417,165.839
16932.870465968,0.061,-0.1479,0.9995,-8.465,-3.417,165.839
16932.970466052,0.0605,-0.1484,0.999,-8.465,-3.417,165.839
16933.070466155,0.0605,-0.1484,0.9995,-8.465,-3.422,165.839
16933.170466201,0.0601,-0.1484,0.999,-8.465,-3.422,165.839
16933.270466304,0.0601,-0.1484,0.998,-8.465,-3.422,165.839
16933.370466314,0.0596,-0.1479,0.999,-8.465,-3.422,165.839
16933.470466342,0.0601,-0.1489,0.9995,-8.465,-3.422,165.839
16933.57046637,0.0601,-0.1484,0.999,-8.465,-3.422,165.839
16933.670466491,0.0596,-0.1484,0.998,-8.465,-3.422,165.839
16933.770466612,0.0601,-0.1484,0.9995,-8.465,-3.422,165.839
16933.870466715,0.0591,-0.1484,0.9995,-8.465,-3.422,165.839
16933.970466761,0.0596,-0.1484,0.999,-8.47,-3.422,165.839
16934.07046679,0.0601,-0.1484,0.9995,-8.47,-3.422,165.839
16934.170466837,0.0601,-0.1489,0.9995,-8.465,-3.422,165.839
16934.270466846,0.061,-0.1484,0.999,-8.465,-3.422,165.839
16934.370466912,0.0601,-0.1484,0.9985,-8.465,-3.422,165.839
16934.470466959,0.0601,-0.1484,0.9985,-8.465,-3.422,165.839
16934.570466987,0.0596,-0.1479,0.9985,-8.465,-3.422,165.839
16934.670467053,0.0605,-0.1484,0.999,-8.465,-3.422,165.839
16934.770467137,0.0591,-0.1489,0.999,-8.465,-3.422,165.839
16934.870467221,0.0596,-0.1484,0.9985,-8.465,-3.422,165.839
16934.970467305,0.0605,-0.1484,1.0,-8.465,-3.422,165.839
16935.070467407,0.0605,-0.1489,0.9985,-8.465,-3.422,165.839
16935.170467417,0.0596,-0.1479,0.998,-8.465,-3.422,165.839
16935.270467501,0.0605,-0.1489,0.999,-8.465,-3.422,165.839
16935.370467604,0.0605,-0.1489,0.999,-8.465,-3.422,165.839
16935.470467725,0.0596,-0.1484,0.9995,-8.465,-3.422,165.839
16935.570467735,0.0605,-0.1484,0.999,-8.465,-3.422,165.839
16935.6704678,0.0601,-0.1484,0.9995,-8.465,-3.422,165.839
16935.770467921,0.0596,-0.1484,0.9985,-8.465,-3.422,165.839
16935.870467931,0.0601,-0.1479,0.999,-8.465,-3.422,165.839
16935.970468016,0.0596,-0.1479,0.9995,-8.465,-3.422,165.839
16936.070468081,0.0596,-0.1489,0.999,-8.465,-3.422,165.839
16936.170468091,0.0605,-0.1489,0.9985,-8.465,-3.422,165.839
16936.270468194,0.0605,-0.1484,0.999,-8.465,-3.422,165.839
16936.370468259,0.0605,-0.1494,0.999,-8.465,-3.422,165.839
16936.470468269,0.0596,-0.1484,0.9985,-8.465,-3.422,165.839
16936.570468335,0.0605,-0.1489,0.9985,-8.465,-3.422,165.839
16936.670468456,0.0601,-0.1484,0.9985,-8.47,-3.422,165.839
16936.770468503,0.0605,-0.1484,0.998,-8.465,-3.422,165.839
16936.870468606,0.0601,-0.1484,0.999,-8.465,-3.422,165.839
16936.970468708,0.0605,-0.1484,0.9985,-8.465,-3.422,165.839
16937.070468811,0.0605,-0.1489,0.9985,-8.465,-3.422,165.839
16937.170468858,0.0605,-0.1489,0.998,-8.465,-3.422,165.839
16937.270468905,0.0601,-0.1489,0.999,-8.465,-3.422,165.839
16937.370468915,0.061,-0.1489,0.9985,-8.465,-3.422,165.839
16937.470469,0.0605,-0.1489,0.9995,-8.465,-3.422,165.839
16937.57046901,0.0605,-0.1484,0.9976,-8.465,-3.422,165.839
16937.670469131,0.061,-0.1489,0.9995,-8.465,-3.422,165.839
16937.770469252,0.0601,-0.1489,0.9976,-8.465,-3.422,165.839
16937.870469318,0.0601,-0.1484,0.9985,-8.465,-3.422,165.839
16937.970469439,0.0601,-0.1484,0.999,-8.465,-3.422,165.839
16938.070469523,0.0605,-0.1479,0.9985,-8.465,-3.422,165.839
16938.170469534,0.0605,-0.1484,0.9985,-8.465,-3.428,165.839
16938.270469581,0.0601,-0.1479,0.9995,-8.465,-3.428,165.839
16938.370469609,0.0601,-0.1479,0.999,-8.465,-3.428,165.839
16938.470469675,0.0605,-0.1489,0.999,-8.465,-3.428,165.839
16938.570469778,0.0605,-0.1489,0.9985,-8.465,-3.428,165.839
16938.670469825,0.0601,-0.1489,0.9985,-8.465,-3.428,165.839
16938.770469928,0.0601,-0.1489,0.999,-8.465,-3.428,165.839
16938.870469957,0.0601,-0.1489,0.998,-8.465,-3.428,165.839
16938.970470041,0.0596,-0.1484,0.9995,-8.465,-3.428,165.839
16939.070470051,0.0591,-0.1494,0.999,-8.465,-3.428,165.839
16939.170470062,0.0605,-0.1484,0.999,-8.465,-3.422,165.839
16939.270470072,0.0601,-0.1489,0.9995,-8.465,-3.422,165.839
16939.370470138,0.0596,-0.1479,0.9995,-8.465,-3.422,165.839
16939.470470259,0.0601,-0.1489,0.999,-8.465,-3.422,165.839
16939.570470269,0.0605,-0.1489,0.999,-8.465,-3.422,165.839
16939.670470372,0.0605,-0.1484,0.9995,-8.465,-3.422,165.839
16939.770470382,0.0605,-0.1484,0.9995,-8.465,-3.422,165.839
16939.870470448,0.0601,-0.1479,0.9985,-8.465,-3.422,165.839
16939.970470533,0.0605,-0.1484,0.9985,-8.465,-3.422,165.839
16940.070470636,0.061,-0.1475,1.0,-8.465,-3.422,165.839
16940.170470664,0.0601,-0.1484,1.0,-8.465,-3.428,165.839
16940.27047073,0.0596,-0.1489,0.9995,-8.465,-3.428,165.839
16940.370470833,0.0605,-0.1479,0.9995,-8.465,-3.428,165.839
16940.470470843,0.0596,-0.1484,1.0,-8.465,-3.428,165.839
16940.570470946,0.0601,-0.1484,0.9985,-8.465,-3.428,165.839
16940.670471068,0.0605,-0.1489,0.999,-8.465,-3.428,165.839
16940.770471171,0.0596,-0.1484,0.998,-8.465,-3.428,165.839
16940.870471181,0.0601,-0.1489,0.9985,-8.465,-3.428,165.839
16940.970471303,0.0605,-0.1489,0.999,-8.465,-3.428,165.839
16941.070471387,0.0596,-0.1484,0.999,-8.465,-3.428,165.839
16941.170471397,0.0601,-0.1489,0.999,-8.465,-3.422,165.839
16941.270471463,0.061,-0.1484,0.9995,-8.465,-3.422,165.839
16941.370471492,0.0596,-0.1489,0.9985,-8.465,-3.422,165.839
16941.470471558,0.0601,-0.1489,0.999,-8.465,-3.422,165.839
16941.570471587,0.0601,-0.1489,0.9995,-8.465,-3.422,165.839
16941.670471635,0.0601,-0.1489,0.998,-8.465,-3.422,165.839
16941.770471719,0.0605,-0.1479,0.9995,-8.465,-3.422,165.839
16941.870471767,0.0601,-0.1484,0.998,-8.465,-3.422,165.839
16941.970471796,0.0605,-0.1484,0.9995,-8.465,-3.422,165.839
16942.070471806,0.0601,-0.1479,0.998,-8.465,-3.422,165.839
16942.170471835,0.0591,-0.1489,0.999,-8.465,-3.422,165.839
16942.27047192,0.0601,-0.1494,0.9985,-8.465,-3.422,165.839
16942.37047193,0.0605,-0.1489,0.9985,-8.465,-3.422,165.839
16942.470471978,0.0601,-0.1484,0.9995,-8.465,-3.422,165.839
16942.570472062,0.0605,-0.1479,0.9985,-8.465,-3.422,165.839
16942.670472073,0.0605,-0.1479,0.9985,-8.465,-3.422,165.839
16942.770472194,0.0601,-0.1489,0.9985,-8.465,-3.428,165.839
16942.870472205,0.0601,-0.1484,0.9985,-8.465,-3.422,165.839
16942.970472326,0.0601,-0.1484,0.998,-8.465,-3.422,165.839
16943.070472337,0.0596,-0.1484,0.999,-8.465,-3.422,165.839
16943.170472403,0.0601,-0.1489,0.9976,-8.47,-3.422,165.839
16943.270472469,0.0605,-0.1489,0.999,-8.47,-3.422,165.839
16943.370472591,0.0601,-0.1489,0.999,-8.47,-3.422,165.839
16943.470472694,0.0605,-0.1484,0.998,-8.47,-3.422,165.839
16943.57047276,0.0605,-0.1489,0.9985,-8.47,-3.422,165.839
16943.670472789,0.0596,-0.1484,0.9995,-8.47,-3.428,165.839
16943.7704728,0.0601,-0.1489,0.999,-8.47,-3.422,165.839
16943.870472903,0.0596,-0.1489,0.9985,-8.47,-3.422,165.839
16943.970473006,0.0601,-0.1489,0.9995,-8.47,-3.422,165.839
16944.070473091,0.0601,-0.1479,0.9985,-8.47,-3.422,165.839
16944.170473138,0.0596,-0.1484,0.998,-8.47,-3.422,165.839
16944.270473223,0.0605,-0.1484,0.9985,-8.47,-3.422,165.839
16944.370473289,0.0605,-0.1489,0.9985,-8.47,-3.422,165.839
16944.470473355,0.0601,-0.1489,0.998,-8.47,-3.422,165.839
16944.57047344,0.0601,-0.1484,1.0,-8.47,-3.422,165.839
16944.670473451,0.0601,-0.1479,0.999,-8.47,-3.422,165.839
16944.770473573,0.0596,-0.1489,0.999,-8.47,-3.422,165.839
16944.87047362,0.0601,-0.1484,0.9985,-8.47,-3.422,165.839
16944.970473668,0.0605,-0.1494,0.9995,-8.47,-3.422,165.839
16945.070473697,0.0605,-0.1489,0.9985,-8.47,-3.422,165.839
16945.1704738,0.0605,-0.1484,0.999,-8.47,-3.422,165.839
16945.270473848,0.0601,-0.1479,0.999,-8.47,-3.422,165.839
16945.370473896,0.0596,-0.1479,0.999,-8.47,-3.422,165.839
16945.470473944,0.0591,-0.1484,0.9995,-8.47,-3.417,165.839
16945.57047401,0.061,-0.1484,0.9985,-8.47,-3.417,165.839
16945.670474132,0.0605,-0.1489,0.999,-8.47,-3.417,165.839
16945.770474142,0.0596,-0.1484,0.999,-8.47,-3.417,165.839
16945.870474209,0.0601,-0.1479,0.999,-8.47,-3.422,165.839
16945.970474238,0.061,-0.1479,0.999,-8.47,-3.422,165.839
16946.070474249,0.0591,-0.1489,0.999,-8.47,-3.422,165.839
16946.170474259,0.0601,-0.1489,0.999,-8.47,-3.422,165.839
16946.270474381,0.0625,-0.1484,0.9961,-8.47,-3.422,165.839
16946.370474411,0.0591,-0.1465,1.0024,-8.476,-3.422,165.839
16946.470474514,0.061,-0.1479,0.9995,-8.476,-3.422,165.839
16946.570474617,0.0591,-0.1489,0.999,-8.476,-3.422,165.839
16946.670474665,0.0605,-0.1479,0.9985,-8.476,-3.422,165.839
16946.77047475,0.0601,-0.1489,0.999,-8.476,-3.422,165.839
16946.870474761,0.0601,-0.1484,0.9985,-8.481,-3.422,165.839
16946.970474827,0.0605,-0.1489,0.998,-8.481,-3.422,165.839
16947.070474838,0.0605,-0.1484,0.9985,-8.481,-3.417,165.839
16947.170474867,0.063,-0.1489,0.9961,-8.481,-3.417,165.839
16947.270474971,0.0591,-0.1484,1.0005,-8.481,-3.417,165.839
16947.370475,0.0601,-0.1489,1.0005,-8.481,-3.417,165.839
16947.470475011,0.0552,-0.1484,1.0049,-8.481,-3.417,165.839
16947.570475022,0.0571,-0.1504,0.9922,-8.487,-3.422,165.839
16947.670475144,0.0581,-0.1484,0.999,-8.487,-3.417,165.839
16947.770475155,0.061,-0.1489,0.9985,-8.487,-3.417,165.839
16947.870475166,0.0596,-0.1475,0.9985,-8.487,-3.417,165.839
16947.970475195,0.0596,-0.1484,0.9985,-8.487,-3.417,165.839
16948.070475224,0.061,-0.1494,0.999,-8.487,-3.417,165.839
16948.170475235,0.0605,-0.1484,0.9985,-8.487,-3.417,165.839
16948.270475357,0.0605,-0.1479,0.998,-8.481,-3.417,165.839
16948.370475368,0.0605,-0.1489,0.999,-8.481,-3.417,165.839
16948.470475472,0.061,-0.1489,0.999,-8.481,-3.417,165.839
16948.570475538,0.0596,-0.1484,0.999,-8.481,-3.417,165.839
16948.670475549,0.0605,-0.1489,0.9985,-8.481,-3.417,165.839
16948.770475579,0.0596,-0.1479,0.9995,-8.481,-3.417,165.839
16948.870475664,0.061,-0.1484,0.9985,-8.476,-3.417,165.839
16948.970475749,0.0601,-0.1484,0.998,-8.476,-3.417,165.839
16949.070475834,0.0601,-0.1489,0.9995,-8.476,-3.417,165.839
16949.1704759,0.0601,-0.1489,0.9995,-8.476,-3.417,165.839
16949.270476004,0.0605,-0.1475,0.9995,-8.476,-3.417,165.839
16949.370476052,0.0591,-0.1484,0.999,-8.476,-3.417,165.839
16949.4704761,0.0596,-0.1494,0.9995,-8.476,-3.417,165.839
16949.570476203,0.0601,-0.1484,0.999,-8.476,-3.417,165.839
16949.670476289,0.0601,-0.1479,0.9995,-8.47,-3.417,165.839
16949.7704763,0.0596,-0.1484,0.999,-8.47,-3.417,165.839
16949.870476403,0.0605,-0.1484,0.998,-8.47,-3.417,165.839
16949.970476507,0.061,-0.1484,0.9995,-8.47,-3.417,165.839
16950.070476573,0.0601,-0.1489,0.998,-8.476,-3.417,165.839
16950.170476584,0.061,-0.1489,0.9995,-8.476,-3.417,165.839
16950.270476595,0.0596,-0.1484,0.9985,-8.476,-3.417,165.839
16950.370476681,0.0596,-0.1489,0.999,-8.476,-3.417,165.839
16950.470476766,0.0601,-0.1494,0.9985,-8.476,-3.417,165.839
16950.570476795,0.0596,-0.1479,0.998,-8.476,-3.417,165.839
16950.670476918,0.0601,-0.1489,0.9995,-8.476,-3.417,165.839
16950.770476947,0.0596,-0.1484,0.9985,-8.47,-3.417,165.839
16950.870477069,0.0601,-0.1484,1.0,-8.47,-3.417,165.839
16950.970477192,0.0596,-0.1489,0.999,-8.47,-3.417,165.839
16951.070477221,0.0601,-0.1489,0.999,-8.476,-3.417,165.839
16951.170477306,0.0601,-0.1489,0.999,-8.476,-3.417,165.839
16951.270477354,0.0605,-0.1489,0.998,-8.476,-3.417,165.839
16951.37047744,0.0596,-0.1494,0.9985,-8.476,-3.417,165.839
16951.470477451,0.0601,-0.1489,0.999,-8.476,-3.417,165.839
16951.570477536,0.0601,-0.1479,0.9985,-8.476,-3.417,165.839
16951.670477547,0.0601,-0.1484,0.9985,-8.476,-3.417,165.839
16951.770477651,0.0605,-0.1484,0.999,-8.47,-3.417,165.839
16951.870477662,0.0596,-0.1484,0.9985,-8.47,-3.417,165.839
16951.97047771,0.0596,-0.1484,0.999,-8.47,-3.417,165.839
16952.070478184,0.0596,-0.1489,0.999,-8.47,-3.417,165.839
16952.17047827,0.0601,-0.1484,0.999,-8.47,-3.417,165.839
16952.270478373,0.061,-0.1484,0.9985,-8.47,-3.417,165.839
16952.370478459,0.0605,-0.1494,0.998,-8.47,-3.417,165.839
16952.47047847,0.0601,-0.1479,0.999,-8.476,-3.417,165.839
16952.570478592,0.0596,-0.1489,0.998,-8.476,-3.417,165.839
16952.670478622,0.0605,-0.1489,0.998,-8.476,-3.417,165.839
16952.770478726,0.0601,-0.1484,0.999,-8.476,-3.417,165.839
16952.870478848,0.0591,-0.1484,0.999,-8.476,-3.417,165.839
16952.97047886,0.0596,-0.1489,0.9995,-8.47,-3.417,165.839
16953.070478889,0.0591,-0.1489,0.9985,-8.47,-3.417,165.839
16953.170478993,0.0601,-0.1479,0.9985,-8.47,-3.417,165.839
16953.270479078,0.0601,-0.1489,0.999,-8.47,-3.417,165.839
16953.370479127,0.061,-0.1489,0.9985,-8.47,-3.417,165.839
16953.470479138,0.0605,-0.1475,0.9995,-8.47,-3.417,165.839
16953.570479205,0.0605,-0.1479,0.999,-8.47,-3.417,165.839
16953.670479253,0.0601,-0.1479,0.9995,-8.47,-3.417,165.839
16953.770479376,0.0601,-0.1475,0.998,-8.47,-3.417,165.839
16953.870479498,0.0596,-0.1484,0.9995,-8.47,-3.422,165.839
16953.970479546,0.0601,-0.1489,0.9985,-8.47,-3.422,165.839
16954.070479632,0.0605,-0.1494,0.9995,-8.47,-3.422,165.839
16954.170479662,0.0601,-0.1489,0.9985,-8.47,-3.422,165.839
16954.27047971,0.0596,-0.1484,0.9995,-8.47,-3.422,165.839
16954.37047974,0.0601,-0.1484,0.9995,-8.47,-3.417,165.839
16954.470479844,0.0601,-0.1484,1.0,-8.47,-3.417,165.839
16954.570479929,0.0601,-0.1479,0.999,-8.47,-3.417,165.839
16954.670480033,0.0601,-0.1494,0.9985,-8.47,-3.417,165.839
16954.770480045,0.0605,-0.1484,0.999,-8.47,-3.417,165.839
16954.870480075,0.0601,-0.1484,0.999,-8.47,-3.417,165.839
16954.970480179,0.0605,-0.1484,0.998,-8.47,-3.417,165.839
16955.070480264,0.0596,-0.1489,0.9985,-8.47,-3.417,165.839
16955.17048035,0.0605,-0.1494,0.999,-8.47,-3.417,165.839
16955.270480472,0.0591,-0.1489,0.9985,-8.47,-3.417,165.839
16955.370480483,0.0601,-0.1494,0.9985,-8.47,-3.417,165.839
16955.470480569,0.0605,-0.1484,0.998,-8.47,-3.417,165.839
16955.570480636,0.0605,-0.1484,0.998,-8.47,-3.417,165.839
16955.670480666,0.0601,-0.1484,0.9985,-8.47,-3.417,165.839
16955.770480789,0.0596,-0.1489,0.9985,-8.47,-3.417,165.839
16955.870480818,0.0601,-0.1479,0.9995,-8.47,-3.417,165.839
16955.970480867,0.0601,-0.1489,0.998,-8.47,-3.417,165.839
16956.070480971,0.061,-0.1489,0.999,-8.47,-3.417,165.839
16956.170481075,0.0596,-0.1489,0.9985,-8.47,-3.417,165.839
16956.270481179,0.0601,-0.1489,0.9985,-8.47,-3.417,165.839
16956.370481302,0.0601,-0.1489,0.999,-8.47,-3.417,165.839
16956.470481369,0.0601,-0.1489,0.999,-8.47,-3.417,165.839
16956.570481454,0.0596,-0.1489,0.9995,-8.47,-3.417,165.839
16956.670481466,0.0605,-0.1489,0.999,-8.47,-3.417,165.839
16956.770481533,0.0605,-0.1484,0.999,-8.47,-3.417,165.839
16956.870481582,0.0605,-0.1484,0.998,-8.47,-3.417,165.839
16956.970481593,0.0601,-0.1489,0.9995,-8.47,-3.417,165.839
16957.070481679,0.0601,-0.1489,0.999,-8.47,-3.417,165.839
16957.170481727,0.0591,-0.1479,0.999,-8.47,-3.417,165.839
16957.270481757,0.0605,-0.1489,0.999,-8.47,-3.417,165.839
16957.370481862,0.0601,-0.1494,0.998,-8.47,-3.417,165.839
16957.470481984,0.0591,-0.1494,0.9995,-8.47,-3.417,165.839
16957.570482033,0.0591,-0.1479,0.9995,-8.47,-3.417,165.839
16957.670482137,0.0596,-0.1484,0.9995,-8.47,-3.417,165.839
16957.770482186,0.0581,-0.1475,1.0,-8.47,-3.417,165.839
16957.870482308,0.061,-0.1475,0.999,-8.47,-3.417,165.839
16957.970482376,0.0605,-0.1479,0.9995,-8.47,-3.417,165.839
16958.070482406,0.0596,-0.1484,1.0,-8.47,-3.417,165.839
16958.170482417,0.0601,-0.1479,0.9985,-8.47,-3.417,165.839
16958.270482503,0.0605,-0.1494,0.9985,-8.47,-3.417,165.839
16958.370482589,0.0601,-0.1489,0.9985,-8.47,-3.417,165.839
16958.470482711,0.0605,-0.1484,0.9995,-8.47,-3.417,165.839
16958.570482816,0.0605,-0.1489,0.999,-8.47,-3.417,165.839
16958.670482864,0.0596,-0.1489,0.999,-8.47,-3.417,165.839
16958.770482895,0.0601,-0.1494,0.998,-8.47,-3.417,165.839
16958.870482925,0.0596,-0.1489,0.9985,-8.47,-3.417,165.839
16958.970483011,0.0601,-0.1484,0.999,-8.47,-3.417,165.839
16959.070483078,0.0596,-0.1489,0.9985,-8.47,-3.417,165.839
16959.170483089,0.0601,-0.1489,0.999,-8.47,-3.417,165.839
16959.270483157,0.0605,-0.1489,0.998,-8.47,-3.417,165.839
16959.370483242,0.0601,-0.1494,0.999,-8.47,-3.417,165.839
16959.470483365,0.0601,-0.1489,0.999,-8.47,-3.417,165.839
16959.57048347,0.0605,-0.1489,0.998,-8.47,-3.417,165.839
16959.670483537,0.0591,-0.1494,0.9985,-8.47,-3.422,165.839
16959.77048366,0.0601,-0.1479,0.9985,-8.47,-3.422,165.839
16959.870483709,0.0605,-0.1489,0.9985,-8.47,-3.422,165.839
16959.970483739,0.0601,-0.1489,0.9985,-8.47,-3.422,165.839
16960.070483806,0.0601,-0.1479,0.9985,-8.47,-3.422,165.839
16960.170483873,0.0605,-0.1494,0.9985,-8.47,-3.422,165.839
16960.270483978,0.0605,-0.1484,0.999,-8.47,-3.422,165.839
16960.370484064,0.0601,-0.1479,0.9985,-8.47,-3.422,165.839
16960.470484149,0.0601,-0.1489,0.999,-8.47,-3.422,165.839
16960.570484198,0.061,-0.1484,0.9976,-8.47,-3.422,165.839
16960.670484303,0.0601,-0.1489,0.9985,-8.47,-3.422,165.839
16960.770484426,0.0601,-0.1484,0.999,-8.47,-3.422,165.839
16960.870484512,0.0591,-0.1484,0.999,-8.47,-3.422,165.839
16960.97048456,0.0605,-0.1489,0.999,-8.47,-3.417,165.839
16961.070484572,0.0596,-0.1489,0.999,-8.47,-3.417,165.839
16961.17048464,0.0605,-0.1484,0.999,-8.47,-3.417,165.839
16961.270484725,0.0601,-0.1494,0.9985,-8.47,-3.417,165.839
16961.370484848,0.0601,-0.1484,0.999,-8.47,-3.417,165.839
16961.470583305,0.0601,-0.1489,0.999,-8.47,-3.417,165.839
16961.57058341,0.0596,-0.1484,0.9995,-8.47,-3.417,165.839
16961.67058344,0.0601,-0.1484,0.9985,-8.47,-3.417,165.839
16961.77058347,0.0601,-0.1489,0.998,-8.47,-3.417,165.839
16961.870583501,0.0601,-0.1489,0.9985,-8.47,-3.417,165.839
16961.970583605,0.0605,-0.1484,0.999,-8.47,-3.417,165.839
16962.07058371,0.0605,-0.1479,0.998,-8.47,-3.417,165.839
16962.17058374,0.0601,-0.1484,0.9985,-8.47,-3.417,165.839
16962.270583826,0.0605,-0.1484,0.9985,-8.47,-3.417,165.839
16962.370583949,0.0601,-0.1489,0.998,-8.47,-3.411,165.839
16962.470584054,0.0601,-0.1484,0.998,-8.47,-3.417,165.839
16962.570584084,0.0596,-0.1489,0.9985,-8.47,-3.417,165.839
16962.670584096,0.0596,-0.1489,0.9985,-8.47,-3.417,165.839
16962.770584127,0.0596,-0.1475,1.0,-8.47,-3.417,165.839
16962.870584176,0.0601,-0.1489,0.999,-8.47,-3.417,165.839
16962.970584299,0.0601,-0.1484,0.9985,-8.47,-3.417,165.839
16963.070584403,0.061,-0.1475,0.9976,-8.47,-3.417,165.839
16963.170584526,0.0601,-0.1475,0.998,-8.47,-3.417,165.839
16963.270584594,0.0596,-0.1489,0.9985,-8.47,-3.417,165.839
16963.370584606,0.0596,-0.1489,0.998,-8.47,-3.417,165.839
16963.470584655,0.0601,-0.1489,0.998,-8.47,-3.417,165.839
16963.570584778,0.0596,-0.1484,0.999,-8.47,-3.417,165.839
16963.670584846,0.0601,-0.1479,0.9985,-8.47,-3.417,165.839
16963.770584876,0.0596,-0.1489,0.999,-8.47,-3.417,165.839
16963.870584962,0.0605,-0.1484,0.9985,-8.47,-3.417,165.839
16963.970584993,0.0605,-0.1489,0.998,-8.47,-3.417,165.839
16964.070585005,0.0601,-0.1484,0.999,-8.47,-3.417,165.839
16964.170585091,0.0601,-0.1489,0.998,-8.47,-3.417,165.839
16964.270585158,0.0601,-0.1489,1.0,-8.47,-3.417,165.839
16964.370585263,0.0605,-0.1479,0.9976,-8.47,-3.417,165.839
16964.470585386,0.0601,-0.1484,1.0,-8.47,-3.417,165.839
16964.570585435,0.0601,-0.1489,0.9976,-8.47,-3.417,165.839
16964.670585466,0.061,-0.1479,0.9985,-8.47,-3.417,165.839
16964.770585571,0.0601,-0.1489,0.9985,-8.47,-3.417,165.839
16964.870585601,0.0605,-0.1489,0.999,-8.47,-3.417,165.839
16964.970585651,0.0605,-0.1484,0.9985,-8.47,-3.417,165.839
16965.070585792,0.0596,-0.1484,0.9985,-8.47,-3.417,165.839
16965.170585915,0.0601,-0.1484,0.999,-8.47,-3.417,165.839
16965.270585946,0.0601,-0.1484,0.9976,-8.47,-3.417,165.839
16965.370585958,0.0605,-0.1484,0.9985,-8.47,-3.417,165.839
16965.470585989,0.0605,-0.1484,0.9985,-8.47,-3.417,165.839
16965.570586057,0.0601,-0.1479,0.9995,-8.47,-3.417,165.839
16965.670586087,0.0605,-0.1484,0.999,-8.47,-3.417,165.839
16965.770586099,0.0596,-0.1484,0.999,-8.47,-3.417,165.839
16965.870586167,0.0601,-0.1479,0.9995,-8.47,-3.417,165.839
16965.970586235,0.0601,-0.1484,0.9985,-8.47,-3.417,165.839
16966.070586321,0.0601,-0.1489,0.9985,-8.47,-3.417,165.839
16966.17058637,0.0596,-0.1484,0.9985,-8.47,-3.417,165.839
16966.270586457,0.0596,-0.1489,0.9985,-8.47,-3.417,165.839
16966.370586524,0.0601,-0.1484,0.999,-8.47,-3.417,165.839
16966.470586574,0.0596,-0.1484,0.9985,-8.47,-3.417,165.839
16966.570586586,0.0596,-0.1494,0.999,-8.47,-3.417,165.839
16966.670586598,0.0605,-0.1484,0.9985,-8.47,-3.417,165.839
16966.770586629,0.0601,-0.1484,0.9985,-8.47,-3.417,165.839
16966.870586752,0.0601,-0.1484,0.999,-8.47,-3.417,165.839
16966.970586876,0.0596,-0.1494,0.9985,-8.47,-3.417,165.839
16967.070586999,0.0591,-0.1484,0.9985,-8.47,-3.417,165.839
16967.170587104,0.0596,-0.1489,0.998,-8.47,-3.411,165.839
16967.270587153,0.0605,-0.1484,0.999,-8.476,-3.411,165.839
16967.370587258,0.0601,-0.1479,0.998,-8.476,-3.411,165.839
16967.470587363,0.0605,-0.1489,0.998,-8.476,-3.411,165.839
16967.570587412,0.0596,-0.1479,0.999,-8.476,-3.417,165.839
16967.670587499,0.0596,-0.1484,0.9995,-8.47,-3.417,165.839
16967.77058764,0.0601,-0.1484,0.999,-8.47,-3.417,165.839
16967.870587764,0.0605,-0.1489,0.999,-8.476,-3.417,165.839
16967.970587869,0.0605,-0.1479,0.998,-8.476,-3.417,165.839
16968.070587955,0.0601,-0.1484,0.999,-8.476,-3.417,165.839
16968.170588005,0.0605,-0.1484,0.9985,-8.476,-3.417,165.839
16968.270588054,0.0596,-0.1484,0.9985,-8.47,-3.417,165.839
16968.37058814,0.0596,-0.1479,0.9985,-8.476,-3.417,165.839
16968.470588153,0.0605,-0.1479,0.9985,-8.47,-3.417,165.839
16968.570588221,0.0601,-0.1484,0.9985,-8.47,-3.417,165.839
16968.670588233,0.0605,-0.1489,0.999,-8.47,-3.417,165.839
16968.770588301,0.0601,-0.1489,0.999,-8.47,-3.417,165.839
16968.87058835,0.0596,-0.1489,0.998,-8.47,-3.417,165.839
16968.9705884,0.0596,-0.1489,0.998,-8.47,-3.417,165.839
16969.070588449,0.0601,-0.1484,0.998,-8.47,-3.411,165.839
16969.170588462,0.0601,-0.1484,0.998,-8.47,-3.411,165.839
16969.270588548,0.0605,-0.1484,0.999,-8.47,-3.411,165.839
16969.370588672,0.0601,-0.1489,0.999,-8.47,-3.411,165.839
16969.470588777,0.0591,-0.1489,0.999,-8.47,-3.411,165.839
16969.570588789,0.0596,-0.1489,0.999,-8.47,-3.411,165.839
16969.670588801,0.0596,-0.1484,0.9976,-8.47,-3.411,165.839
16969.770588832,0.0605,-0.1489,0.9971,-8.476,-3.411,165.839
16969.870588956,0.0601,-0.1484,0.999,-8.476,-3.411,165.839
16969.970588968,0.0601,-0.1484,0.998,-8.47,-3.411,165.839
16970.070589036,0.0605,-0.1479,0.998,-8.47,-3.417,165.839
16970.170589049,0.0601,-0.1489,0.998,-8.47,-3.417,165.839
16970.270589061,0.0601,-0.1484,0.9985,-8.47,-3.411,165.839
16970.370589203,0.0601,-0.1484,0.999,-8.47,-3.411,165.839
16970.470589272,0.0596,-0.1484,0.9985,-8.47,-3.411,165.839
16970.570589377,0.0596,-0.1484,0.9985,-8.47,-3.411,165.839
16970.670589482,0.0601,-0.1479,0.9985,-8.47,-3.411,165.839
16970.770589531,0.0596,-0.1484,0.999,-8.47,-3.411,165.839
16970.870589618,0.0601,-0.1479,1.0,-8.47,-3.411,165.839
16970.970589723,0.0596,-0.1479,0.9985,-8.47,-3.411,165.839
16971.070589791,0.0605,-0.1489,0.999,-8.47,-3.411,165.839
16971.170589878,0.0601,-0.1484,0.998,-8.47,-3.411,165.839
16971.270590001,0.0605,-0.1484,0.999,-8.47,-3.411,165.839
16971.370590069,0.0596,-0.1484,0.9985,-8.47,-3.411,165.839
16971.470590156,0.0601,-0.1484,0.9985,-8.47,-3.411,165.839
16971.570590206,0.0601,-0.1489,0.9985,-8.47,-3.411,165.839
16971.670590218,0.0601,-0.1484,0.9985,-8.476,-3.411,165.839
16971.770590268,0.0591,-0.1479,0.9985,-8.476,-3.411,165.839
16971.870590336,0.061,-0.1494,0.999,-8.476,-3.411,165.839
16971.970590367,0.0601,-0.1484,0.9995,-8.476,-3.411,165.839
16972.070590435,0.061,-0.1489,0.999,-8.476,-3.411,165.839
16972.170590466,0.0601,-0.1484,0.998,-8.476,-3.417,165.839
16972.270590553,0.0605,-0.1489,0.999,-8.476,-3.417,165.839
16972.37059064,0.0596,-0.1489,0.998,-8.476,-3.417,165.839
16972.470590727,0.061,-0.1479,0.9985,-8.476,-3.417,165.839
16972.57059085,0.0601,-0.1489,0.999,-8.476,-3.417,165.839
16972.670590956,0.0596,-0.1479,0.9985,-8.476,-3.417,165.839
16972.770590987,0.0601,-0.1484,0.998,-8.476,-3.417,165.839
16972.870591055,0.0605,-0.1489,0.999,-8.476,-3.417,165.839
16972.970591123,0.0596,-0.1484,0.9985,-8.476,-3.417,165.839
16973.070591154,0.0605,-0.1489,0.999,-8.476,-3.417,165.839
16973.17059126,0.0601,-0.1484,0.9985,-8.476,-3.417,165.839
16973.270591383,0.0601,-0.1494,0.9976,-8.476,-3.417,165.839
16973.370591452,0.0601,-0.1484,0.9985,-8.476,-3.417,165.839
16973.470591557,0.0601,-0.1484,0.999,-8.476,-3.411,165.839
16973.570591607,0.0605,-0.1475,0.999,-8.476,-3.411,165.839
16973.670591712,0.0605,-0.1494,0.999,-8.476,-3.411,165.839
16973.770591836,0.0601,-0.1494,0.999,-8.476,-3.411,165.839
16973.870591904,0.0601,-0.1489,0.999,-8.476,-3.411,165.839
16973.970592028,0.0601,-0.1484,0.998,-8.476,-3.411,165.839
16974.070592041,0.0605,-0.1484,0.9985,-8.476,-3.411,165.839
16974.17059209,0.0601,-0.1489,0.9995,-8.476,-3.411,165.839
16974.270592214,0.0601,-0.1479,0.998,-8.476,-3.411,165.839
16974.370592338,0.0601,-0.1484,0.998,-8.476,-3.411,165.839
16974.470592462,0.0596,-0.1489,0.999,-8.476,-3.411,165.839
16974.570592567,0.0605,-0.1494,0.999,-8.476,-3.411,165.839
16974.670592599,0.0605,-0.1484,0.998,-8.476,-3.411,165.839
16974.77059263,0.0601,-0.1484,0.9985,-8.476,-3.411,165.839
16974.870592698,0.0605,-0.1489,0.999,-8.481,-3.411,165.839
16974.970592822,0.0596,-0.1484,0.998,-8.481,-3.411,165.839
16975.070592854,0.061,-0.1484,0.998,-8.481,-3.417,165.839
16975.170592866,0.0591,-0.1489,0.998,-8.481,-3.417,165.839
16975.270592898,0.0596,-0.1489,0.998,-8.481,-3.411,165.839
16975.370593022,0.0601,-0.1489,0.9985,-8.481,-3.411,165.839
16975.47059309,0.0596,-0.1489,0.998,-8.481,-3.411,165.839
16975.570593196,0.0601,-0.1489,0.9985,-8.481,-3.411,165.839
16975.67059332,0.0596,-0.1484,0.998,-8.481,-3.411,165.839
16975.770593351,0.0605,-0.1489,0.998,-8.481,-3.417,165.839
16975.870593364,0.0601,-0.1494,0.999,-8.481,-3.417,165.839
16975.970593451,0.0605,-0.1484,0.999,-8.481,-3.417,165.839
16976.070593464,0.0601,-0.1489,0.9985,-8.481,-3.417,165.839
16976.170593588,0.0605,-0.1494,0.998,-8.481,-3.417,165.839
16976.270593656,0.0601,-0.1479,0.9985,-8.481,-3.411,165.839
16976.370593762,0.0601,-0.1484,0.9985,-8.481,-3.411,165.839
16976.470593867,0.0605,-0.1489,0.999,-8.481,-3.411,165.839
16976.570593954,0.0601,-0.1489,0.998,-8.481,-3.411,165.839
16976.670593967,0.0601,-0.1489,0.9995,-8.481,-3.411,165.839
16976.770594072,0.0601,-0.1489,0.9985,-8.481,-3.411,165.839
16976.870594215,0.0601,-0.1489,0.999,-8.481,-3.411,165.839
16976.970594265,0.0591,-0.1489,0.9985,-8.481,-3.411,165.839
16977.070594334,0.0605,-0.1489,0.9985,-8.481,-3.411,165.839
16977.170594383,0.0601,-0.1479,0.998,-8.481,-3.411,165.839
16977.270594396,0.0605,-0.1494,0.998,-8.481,-3.411,165.839
16977.370594428,0.0596,-0.1479,0.998,-8.481,-3.411,165.839
16977.470594552,0.0591,-0.1489,0.998,-8.481,-3.411,165.839
16977.570594658,0.0596,-0.1479,0.9985,-8.481,-3.411,165.839
16977.670594689,0.0591,-0.1489,0.999,-8.481,-3.411,165.839
16977.770594795,0.0601,-0.1489,0.9976,-8.481,-3.411,165.839
16977.870594845,0.0601,-0.1484,0.9985,-8.476,-3.411,165.839
16977.970594932,0.0591,-0.1479,0.9971,-8.476,-3.411,165.839
16978.070595,0.0596,-0.1489,1.0,-8.476,-3.406,165.839
16978.170595032,0.0586,-0.1484,0.999,-8.476,-3.406,165.839
16978.270595119,0.0601,-0.1484,0.9995,-8.476,-3.406,165.839
16978.370595206,0.0605,-0.1509,0.9985,-8.476,-3.406,165.839
16978.47059533,0.0601,-0.1479,0.9976,-8.47,-3.406,165.839
16978.57059538,0.0601,-0.1479,0.9976,-8.47,-3.406,165.839
16978.670595431,0.0605,-0.1562,1.0015,-8.476,-3.406,165.839
16978.770595444,0.0596,-0.1494,0.9976,-8.47,-3.411,165.839
16978.870595457,0.0615,-0.1484,0.9971,-8.476,-3.411,165.839
16978.970595525,0.0586,-0.1484,0.999,-8.476,-3.417,165.839
16979.07059565,0.061,-0.1499,0.999,-8.481,-3.417,165.839
16979.170595774,0.0591,-0.1504,1.002,-8.481,-3.411,165.839
16979.270595861,0.061,-0.1489,0.998,-8.481,-3.417,165.839
16979.37059593,0.0591,-0.1519,1.002,-8.481,-3.417,165.844
16979.470595943,0.0605,-0.1514,1.0005,-8.476,-3.422,165.844
16979.570596048,0.0615,-0.1494,0.9976,-8.47,-3.422,165.844
16979.670596173,0.0542,-0.1479,1.0054,-8.465,-3.422,165.844
16979.77059626,0.0596,-0.1494,1.0005,-8.47,-3.417,165.844
16979.870596366,0.0601,-0.1484,0.9966,-8.47,-3.417,165.839
16979.970596434,0.061,-0.1484,0.9985,-8.47,-3.417,165.839
16980.070596521,0.0605,-0.1499,0.9976,-8.47,-3.417,165.839
16980.170596553,0.0596,-0.1479,1.0,-8.47,-3.417,165.839
16980.270596566,0.0596,-0.1475,0.9966,-8.47,-3.417,165.839
16980.370596635,0.0601,-0.1479,0.9985,-8.47,-3.417,165.839
16980.470596759,0.0605,-0.1475,0.999,-8.47,-3.417,165.839
16980.570596773,0.0601,-0.1499,0.9995,-8.47,-3.417,165.839
16980.67059686,0.0605,-0.1504,0.9985,-8.476,-3.417,165.839
16980.770596929,0.0605,-0.1484,0.999,-8.476,-3.417,165.839
16980.870596997,0.0601,-0.1494,0.999,-8.476,-3.422,165.839
16980.970597085,0.0596,-0.1484,0.9985,-8.476,-3.422,165.839
16981.07059719,0.0601,-0.1494,0.999,-8.481,-3.422,165.839
16981.170597296,0.0601,-0.1489,0.998,-8.481,-3.422,165.839
16981.270597328,0.0601,-0.1499,0.999,-8.481,-3.422,165.839
16981.370597341,0.0601,-0.1484,0.9985,-8.481,-3.422,165.839
16981.470597447,0.0591,-0.1489,0.999,-8.481,-3.422,165.839
16981.570597572,0.0605,-0.1489,0.999,-8.481,-3.422,165.839
16981.670597659,0.0605,-0.1494,0.9976,-8.481,-3.422,165.839
16981.770597746,0.0605,-0.1494,0.999,-8.481,-3.422,165.839
16981.870597834,0.0601,-0.1494,0.9971,-8.481,-3.422,165.839
16981.970597958,0.0601,-0.1484,0.9985,-8.487,-3.422,165.839
16982.070598101,0.0601,-0.1489,0.9985,-8.487,-3.422,165.839
16982.170598225,0.0601,-0.1494,0.9995,-8.487,-3.422,165.839
16982.270598239,0.0605,-0.1494,0.9976,-8.487,-3.422,165.839
16982.370598326,0.0596,-0.1489,0.998,-8.487,-3.422,165.839
16982.470598413,0.0605,-0.1489,0.9985,-8.487,-3.422,165.839
16982.570598482,0.0601,-0.1489,0.9985,-8.487,-3.417,165.839
16982.67059857,0.061,-0.1494,0.998,-8.487,-3.417,165.839
16982.770598639,0.0596,-0.1489,0.999,-8.487,-3.422,165.839
16982.870598763,0.0596,-0.1489,0.9995,-8.487,-3.417,165.839
16982.970598887,0.0605,-0.1494,0.9976,-8.492,-3.417,165.839
16983.070598938,0.0596,-0.1489,0.999,-8.492,-3.417,165.839
16983.170599007,0.0596,-0.1475,0.9985,-8.492,-3.417,165.839
16983.270599057,0.061,-0.1484,0.9976,-8.487,-3.417,165.839
16983.370599089,0.0605,-0.1489,1.0,-8.487,-3.417,165.839
16983.470599195,0.0601,-0.1489,0.998,-8.487,-3.417,165.839
16983.570599208,0.0596,-0.1489,0.9995,-8.487,-3.417,165.839
16983.670599277,0.0605,-0.1489,0.9985,-8.487,-3.417,165.839
16983.770599309,0.061,-0.1489,0.999,-8.487,-3.417,165.839
16983.870599452,0.0601,-0.1494,1.0,-8.487,-3.417,165.839
16983.970599558,0.0601,-0.1484,0.9995,-8.487,-3.417,165.839
16984.070599683,0.0601,-0.1484,0.998,-8.487,-3.417,165.839
16984.170599752,0.0601,-0.1494,0.998,-8.487,-3.417,165.839
16984.270599784,0.0601,-0.1489,0.9985,-8.487,-3.417,165.839
16984.370599908,0.061,-0.1494,0.9995,-8.487,-3.417,165.839
16984.470599977,0.0596,-0.1489,0.9985,-8.487,-3.417,165.839
16984.570600046,0.0596,-0.1489,0.999,-8.487,-3.417,165.839
16984.670600134,0.0605,-0.1489,0.9976,-8.487,-3.417,165.839
16984.77060024,0.061,-0.1499,0.999,-8.487,-3.417,165.839
16984.870600365,0.0605,-0.1479,0.999,-8.492,-3.417,165.839
16984.970600397,0.0601,-0.1484,0.9985,-8.487,-3.417,165.839
16985.070600466,0.0596,-0.1484,0.9985,-8.487,-3.417,165.839
16985.170600535,0.061,-0.1484,0.999,-8.487,-3.417,165.839
16985.270600585,0.0601,-0.1489,0.999,-8.487,-3.417,165.839
16985.370600599,0.0596,-0.1489,0.9985,-8.487,-3.417,165.839
16985.470600649,0.0605,-0.1484,0.9985,-8.492,-3.417,165.839
16985.570600719,0.0601,-0.1489,0.9985,-8.492,-3.417,165.839
16985.670600751,0.0596,-0.1494,0.998,-8.492,-3.417,165.839
16985.770600783,0.0601,-0.1484,1.0,-8.492,-3.417,165.839
16985.870600889,0.0605,-0.1494,0.999,-8.492,-3.417,165.839
16985.970601013,0.0601,-0.1494,0.9985,-8.492,-3.417,165.839
16986.070601083,0.0605,-0.1489,0.998,-8.492,-3.417,165.839
16986.17060117,0.0601,-0.1494,0.9985,-8.492,-3.417,165.839
16986.270601295,0.0605,-0.1494,0.9985,-8.492,-3.417,165.839
16986.370601346,0.0601,-0.1489,0.9976,-8.492,-3.417,165.839
16986.470601433,0.0591,-0.1499,0.999,-8.492,-3.417,165.839
16986.570601447,0.0605,-0.1489,0.9976,-8.492,-3.417,165.839
16986.67060146,0.0601,-0.1484,0.9995,-8.498,-3.417,165.839
16986.770601567,0.0601,-0.1489,0.9985,-8.498,-3.417,165.839
16986.870601599,0.0586,-0.1484,1.0,-8.498,-3.417,165.839
16986.970601686,0.0601,-0.1484,0.9985,-8.498,-3.417,165.839
16987.070601774,0.062,-0.1499,0.9966,-8.498,-3.417,165.839
16987.170601862,0.0625,-0.1523,0.9966,-8.498,-3.417,165.839
16987.270601894,0.0591,-0.1484,1.001,-8.498,-3.417,165.839
16987.370601926,0.062,-0.146,0.9995,-8.498,-3.422,165.844
16987.470602051,0.0596,-0.1475,0.9985,-8.492,-3.417,165.839
16987.57060212,0.061,-0.1489,0.9985,-8.492,-3.417,165.839
16987.670602189,0.0586,-0.1489,0.9995,-8.492,-3.417,165.839
16987.770602222,0.0605,-0.1489,0.9976,-8.492,-3.411,165.839
16987.870602346,0.0615,-0.1489,0.9961,-8.492,-3.417,165.839
16987.970602471,0.064,-0.1504,0.9932,-8.492,-3.417,165.844
16988.070602559,0.0601,-0.1489,0.999,-8.487,-3.417,165.844
16988.170602647,0.0591,-0.1489,1.0,-8.487,-3.417,165.844
16988.270602734,0.0601,-0.1494,0.9985,-8.487,-3.417,165.844
16988.370602767,0.0596,-0.1489,0.9976,-8.487,-3.411,165.839
16988.470602892,0.0596,-0.1494,0.9995,-8.487,-3.411,165.839
16988.570602979,0.0601,-0.1489,0.998,-8.487,-3.411,165.839
16988.670603012,0.0605,-0.1484,0.999,-8.487,-3.411,165.839
16988.770603062,0.0601,-0.1484,0.9985,-8.487,-3.411,165.839
16988.87060315,0.0591,-0.1489,1.001,-8.487,-3.411,165.839
16988.970603238,0.0605,-0.1489,0.998,-8.487,-3.411,165.839
16989.070603307,0.0601,-0.1489,0.999,-8.487,-3.411,165.839
16989.170603414,0.0605,-0.1489,0.999,-8.487,-3.411,165.839
16989.270603465,0.0605,-0.1494,0.9976,-8.487,-3.411,165.839
16989.370603571,0.0605,-0.1494,0.999,-8.487,-3.411,165.839
16989.470603585,0.0596,-0.1489,0.9985,-8.492,-3.417,165.839
16989.570603636,0.0601,-0.1484,0.9985,-8.492,-3.417,165.839
16989.670603668,0.0596,-0.1484,0.999,-8.492,-3.417,165.839
16989.770603774,0.0601,-0.1489,0.999,-8.492,-3.417,165.839
16989.870603899,0.0596,-0.1484,0.998,-8.492,-3.417,165.839
16989.970603969,0.061,-0.1484,0.999,-8.492,-3.417,165.839
16990.070603983,0.0601,-0.1484,0.999,-8.487,-3.417,165.839
16990.170604052,0.0591,-0.1484,0.9985,-8.487,-3.417,165.839
16990.270604084,0.0601,-0.1494,0.9976,-8.487,-3.417,165.839
16990.370604098,0.0601,-0.1494,0.998,-8.492,-3.417,165.839
16990.470604168,0.0605,-0.1484,0.998,-8.492,-3.411,165.839
16990.570604274,0.0596,-0.1494,0.999,-8.492,-3.411,165.844
16990.670604362,0.0601,-0.1494,0.9985,-8.492,-3.411,165.839
16990.770604413,0.0601,-0.1494,0.9985,-8.492,-3.411,165.839
16990.870604482,0.0601,-0.1494,0.9995,-8.492,-3.417,165.844
16990.970604552,0.0601,-0.1489,0.9976,-8.492,-3.417,165.844
16991.070604603,0.0605,-0.1489,0.9985,-8.492,-3.417,165.844
16991.170604654,0.0596,-0.1484,0.999,-8.492,-3.417,165.844
16991.27060476,0.0591,-0.1489,0.9995,-8.492,-3.417,165.844
16991.370604793,0.0601,-0.1494,0.999,-8.492,-3.417,165.844
16991.470604918,0.0591,-0.1484,0.9995,-8.492,-3.411,165.844
16991.570605006,0.0601,-0.1489,0.999,-8.492,-3.411,165.844
16991.670605131,0.0601,-0.1489,0.998,-8.492,-3.411,165.844
16991.770605237,0.0601,-0.1494,0.999,-8.492,-3.417,165.844
16991.870605307,0.0596,-0.1489,0.9985,-8.492,-3.417,165.844
16991.970605395,0.0605,-0.1494,0.998,-8.492,-3.417,165.844
16992.070605409,0.0601,-0.1489,0.999,-8.492,-3.417,165.844
16992.170605534,0.0605,-0.1489,0.9995,-8.492,-3.417,165.844
16992.270605622,0.0605,-0.1494,0.9976,-8.498,-3.417,165.844
16992.370605691,0.0601,-0.1489,0.9985,-8.498,-3.417,165.844
16992.470605798,0.0605,-0.1489,0.9985,-8.498,-3.417,165.844
16992.570605923,0.0601,-0.1489,0.9985,-8.498,-3.417,165.844
16992.670606048,0.0601,-0.1489,1.0,-8.498,-3.417,165.844
16992.770606081,0.0596,-0.1489,0.9985,-8.492,-3.417,165.844
16992.870606206,0.0591,-0.1494,0.9985,-8.492,-3.411,165.844
16992.970606276,0.0596,-0.1489,0.9985,-8.498,-3.411,165.844
16993.07060629,0.0601,-0.1494,0.998,-8.498,-3.411,165.844
16993.170606304,0.0601,-0.1494,0.9995,-8.498,-3.411,165.844
16993.27060641,0.0601,-0.1489,0.998,-8.498,-3.411,165.844
16993.370606517,0.061,-0.1489,0.999,-8.498,-3.411,165.844
16993.470606568,0.0596,-0.1489,0.998,-8.498,-3.417,165.844
16993.570606675,0.0605,-0.1489,0.999,-8.498,-3.417,165.844
16993.670606818,0.0596,-0.1489,0.9985,-8.498,-3.417,165.844
16993.770606925,0.0601,-0.1494,1.0,-8.498,-3.417,165.844
16993.870606958,0.0601,-0.1489,0.999,-8.498,-3.417,165.844
16993.970607083,0.0601,-0.1489,1.0,-8.498,-3.411,165.844
16994.070607115,0.0596,-0.1494,0.999,-8.498,-3.411,165.844
16994.170607167,0.0601,-0.1494,0.999,-8.498,-3.411,165.844
16994.270607236,0.0601,-0.1484,0.999,-8.498,-3.411,165.844
16994.370607287,0.0601,-0.1489,0.9985,-8.498,-3.411,165.844
16994.470607394,0.0605,-0.1489,0.9995,-8.498,-3.411,165.844
16994.570607464,0.0586,-0.1489,0.9995,-8.498,-3.411,165.844
16994.670607534,0.0601,-0.1494,0.9985,-8.498,-3.411,165.844
16994.770607622,0.0601,-0.1494,0.999,-8.498,-3.411,165.844
16994.870607654,0.0596,-0.1499,0.999,-8.498,-3.411,165.844
16994.97060778,0.0596,-0.1489,0.9985,-8.498,-3.411,165.844
16995.070607849,0.0591,-0.1499,0.9985,-8.498,-3.411,165.844
16995.170607901,0.0596,-0.1494,0.999,-8.498,-3.411,165.839
16995.27060797,0.0601,-0.1489,0.998,-8.498,-3.411,165.839
16995.370608059,0.0601,-0.1489,1.0,-8.498,-3.411,165.839
16995.470608073,0.0601,-0.1489,0.998,-8.498,-3.411,165.839
16995.570608106,0.0601,-0.1494,0.999,-8.498,-3.411,165.839
16995.670608231,0.0601,-0.1494,0.999,-8.498,-3.411,165.839
16995.770608282,0.0605,-0.1494,0.9971,-8.503,-3.411,165.839
16995.870608315,0.0601,-0.1489,0.998,-8.503,-3.411,165.839
16995.970608422,0.0601,-0.1489,0.998,-8.503,-3.411,165.839
16996.07060851,0.0596,-0.1489,0.999,-8.503,-3.411,165.839
16996.170608617,0.0596,-0.1489,0.999,-8.503,-3.411,165.839
16996.270608631,0.0596,-0.1499,0.999,-8.503,-3.411,165.839
16996.370608738,0.0601,-0.1489,0.9985,-8.503,-3.411,165.839
16996.470608882,0.0591,-0.1494,0.998,-8.503,-3.411,165.839
16996.570608989,0.0605,-0.1494,0.999,-8.503,-3.411,165.839
16996.670609096,0.0601,-0.1494,0.998,-8.503,-3.411,165.839
16996.770609221,0.0601,-0.1489,0.998,-8.503,-3.411,165.839
16996.870609346,0.0596,-0.1494,0.9976,-8.503,-3.411,165.839
16996.970609398,0.0596,-0.1489,0.9995,-8.503,-3.411,165.839
16997.070609523,0.0601,-0.1489,0.9985,-8.503,-3.411,165.839
16997.170609649,0.0596,-0.1494,0.999,-8.503,-3.411,165.839
16997.270609663,0.0596,-0.1489,0.9976,-8.503,-3.411,165.839
16997.370609788,0.0605,-0.1489,0.999,-8.509,-3.411,165.839
16997.470609803,0.0601,-0.1494,0.999,-8.509,-3.411,165.839
16997.570609854,0.0591,-0.1494,0.998,-8.509,-3.411,165.839
16997.670609905,0.0596,-0.1489,0.998,-8.509,-3.411,165.839
16997.770609975,0.0601,-0.1494,0.998,-8.509,-3.411,165.839
16997.870610045,0.0601,-0.1504,0.998,-8.509,-3.411,165.839
16997.970610171,0.0596,-0.1489,0.998,-8.509,-3.411,165.839
16998.070610204,0.0605,-0.1489,0.999,-8.509,-3.411,165.839
16998.170610218,0.0601,-0.1509,1.0,-8.509,-3.411,165.839
16998.270610232,0.0601,-0.1494,0.998,-8.509,-3.411,165.839
16998.370610339,0.0601,-0.1494,0.9985,-8.509,-3.411,165.839
16998.470610372,0.0601,-0.1494,0.9995,-8.509,-3.411,165.839
16998.570610461,0.0605,-0.1494,0.9985,-8.509,-3.411,165.839
16998.670610494,0.0596,-0.1475,0.998,-8.509,-3.417,165.839
16998.770610527,0.061,-0.1494,0.9985,-8.509,-3.417,165.839
16998.870610652,0.0601,-0.1489,0.9985,-8.509,-3.417,165.839
16998.970610722,0.0605,-0.1489,0.999,-8.509,-3.417,165.839
16999.070610829,0.0605,-0.1484,0.9985,-8.503,-3.417,165.839
16999.170610843,0.0591,-0.1499,0.9985,-8.503,-3.417,165.839
16999.270610913,0.0605,-0.1489,0.9976,-8.509,-3.417,165.839
16999.370611039,0.0571,-0.1479,1.002,-8.52,-3.411,165.839
16999.470611165,0.0596,-0.1538,0.9985,-8.536,-3.406,165.839
16999.570611216,0.061,-0.1489,0.998,-8.542,-3.406,165.839
16999.670611342,0.0615,-0.1489,0.9966,-8.536,-3.406,165.839
16999.77061143,0.0601,-0.1455,0.9995,-8.547,-3.4,165.839
16999.8706115,0.0581,-0.1514,1.0029,-8.547,-3.4,165.839
16999.97061157,0.0605,-0.147,0.9956,-8.509,-3.406,165.839
17000.07061164,0.0615,-0.1475,0.9941,-8.503,-3.417,165.839
17000.170611748,0.0625,-0.1519,0.9976,-8.509,-3.417,165.839
17000.270611855,0.0635,-0.1504,0.998,-8.514,-3.411,165.839
17000.37061198,0.0596,-0.1455,0.9971,-8.514,-3.411,165.839
17000.470612106,0.063,-0.1494,0.9976,-8.52,-3.411,165.839
17000.570612213,0.0635,-0.1475,0.9956,-8.52,-3.422,165.844
17000.670612246,0.0635,-0.1504,0.9932,-8.52,-3.428,165.844
17000.770612298,0.0605,-0.1484,0.9961,-8.52,-3.433,165.844
17000.870612405,0.0605,-0.1504,0.9995,-8.52,-3.439,165.844
17000.970612512,0.0615,-0.1479,0.9966,-8.52,-3.439,165.844
17001.070612545,0.0596,-0.1494,1.0015,-8.531,-3.439,165.844
17001.170612615,0.061,-0.1494,0.9961,-8.542,-3.444,165.844
17001.270612685,0.0601,-0.1504,0.9995,-8.542,-3.439,165.844
17001.370612811,0.0645,-0.1489,0.9937,-8.547,-3.439,165.844
17001.4706129,0.0581,-0.1504,1.0015,-8.547,-3.439,165.844
17001.570612951,0.0605,-0.1519,0.9985,-8.553,-3.439,165.844
17001.670613077,0.0601,-0.1494,0.998,-8.553,-3.433,165.844
17001.770613166,0.0615,-0.1528,1.0005,-8.553,-3.433,165.844
17001.870613217,0.0615,-0.1509,0.9995,-8.553,-3.433,165.844
17001.970613269,0.0615,-0.1504,0.998,-8.553,-3.433,165.844
17002.070613358,0.0615,-0.1553,1.001,-8.558,-3.428,165.844
17002.170613483,0.0586,-0.1489,0.9956,-8.553,-3.433,165.844
17002.270613572,0.0601,-0.1504,0.998,-8.558,-3.428,165.844
17002.370613698,0.0605,-0.1509,0.999,-8.558,-3.428,165.844
17002.470613805,0.0596,-0.1514,0.999,-8.558,-3.433,165.844
17002.570613857,0.0601,-0.1494,0.9985,-8.558,-3.433,165.844
17002.670613983,0.0605,-0.1504,0.9976,-8.558,-3.433,165.844
17002.770614053,0.0605,-0.1499,0.9985,-8.558,-3.433,165.844
17002.870614142,0.0605,-0.1509,0.9985,-8.558,-3.433,165.844
17002.97061423,0.0615,-0.1489,0.998,-8.564,-3.433,165.844
17003.070614319,0.0605,-0.1509,1.0005,-8.564,-3.433,165.844
17003.170614352,0.0601,-0.1509,0.9985,-8.569,-3.433,165.844
17003.270614478,0.0605,-0.1509,0.9985,-8.569,-3.433,165.844
17003.370614567,0.061,-0.1504,0.998,-8.569,-3.433,165.844
17003.470614619,0.062,-0.1519,0.998,-8.569,-3.439,165.844
17003.570614708,0.061,-0.1504,0.9971,-8.575,-3.439,165.844
17003.670614759,0.0615,-0.1519,0.9985,-8.575,-3.439,165.844
17003.770614848,0.0615,-0.1499,0.998,-8.575,-3.439,165.844
17003.870614919,0.0615,-0.1553,0.999,-8.575,-3.439,165.844
17003.970615026,0.061,-0.1514,0.998,-8.58,-3.444,165.844
17004.070615078,0.0605,-0.1509,0.998,-8.586,-3.444,165.844
17004.170615111,0.0605,-0.1514,0.9985,-8.586,-3.444,165.844
17004.270615237,0.061,-0.1514,0.9971,-8.586,-3.45,165.844
17004.37061527,0.0605,-0.1514,1.0,-8.591,-3.45,165.844
17004.470615396,0.062,-0.1504,0.9966,-8.591,-3.455,165.844
17004.570615485,0.061,-0.1504,0.9995,-8.597,-3.455,165.844
17004.670615555,0.0601,-0.1504,0.999,-8.597,-3.455,165.844
17004.770615681,0.0615,-0.1514,0.9985,-8.602,-3.455,165.844
17004.870615752,0.061,-0.1509,0.9985,-8.602,-3.455,165.844
17004.970615785,0.061,-0.1519,0.999,-8.602,-3.455,165.844
17005.070615911,0.0615,-0.1523,0.999,-8.602,-3.455,165.844
17005.170615981,0.061,-0.1489,0.9976,-8.602,-3.455,165.844
17005.270616033,0.062,-0.1504,0.9976,-8.602,-3.455,165.844
17005.370616104,0.061,-0.1514,0.9985,-8.602,-3.455,165.844
17005.470616174,0.061,-0.1514,0.998,-8.602,-3.455,165.844
17005.570616207,0.061,-0.1509,0.9995,-8.602,-3.455,165.844
17005.670616222,0.0605,-0.1523,0.9985,-8.602,-3.455,165.844
17005.770616293,0.0605,-0.1509,0.9976,-8.602,-3.455,165.844
17005.870616419,0.0601,-0.1523,0.9995,-8.602,-3.455,165.844
17005.970616452,0.0596,-0.1504,0.9976,-8.602,-3.455,165.844
17006.070616541,0.061,-0.1509,0.9966,-8.602,-3.455,165.844
17006.170616574,0.0605,-0.1504,0.9966,-8.602,-3.45,165.844
17006.270616626,0.062,-0.1523,0.999,-8.602,-3.45,165.844
17006.370616641,0.061,-0.1504,0.999,-8.602,-3.45,165.844
17006.470616693,0.0601,-0.1499,0.998,-8.602,-3.45,165.844
17006.570616819,0.0605,-0.1504,0.9976,-8.602,-3.45,165.844
17006.670616927,0.0605,-0.1514,0.999,-8.602,-3.45,165.844
17006.770617016,0.0596,-0.1489,0.9966,-8.602,-3.45,165.844
17006.870617031,0.0601,-0.1504,0.9976,-8.608,-3.455,165.844
17006.970617046,0.0596,-0.1489,0.998,-8.602,-3.455,165.844
17007.070617079,0.0601,-0.1519,0.9995,-8.602,-3.45,165.844
17007.17061715,0.0596,-0.147,0.9961,-8.602,-3.45,165.844
17007.270617276,0.0601,-0.1519,0.999,-8.608,-3.444,165.844
17007.370617346,0.061,-0.1509,0.9976,-8.602,-3.45,165.844
17007.470617398,0.0605,-0.1514,1.0005,-8.602,-3.45,165.844
17007.57061745,0.061,-0.1514,0.999,-8.602,-3.444,165.844
17007.670617484,0.0615,-0.1509,0.999,-8.608,-3.45,165.844
17007.77061761,0.0605,-0.1514,0.999,-8.608,-3.45,165.844
17007.870617681,0.062,-0.1533,0.9985,-8.602,-3.45,165.844
17007.970617788,0.061,-0.1509,0.998,-8.608,-3.444,165.844
17008.07061784,0.0615,-0.1514,1.0,-8.608,-3.444,165.844
17008.170617929,0.061,-0.1514,0.998,-8.608,-3.444,165.844
17008.270617981,0.0591,-0.1519,0.9995,-8.608,-3.444,165.844
17008.370617996,0.061,-0.1504,0.9985,-8.608,-3.444,165.844
17008.470618123,0.0601,-0.1499,0.999,-8.608,-3.45,165.844
17008.570618156,0.0601,-0.1499,0.9971,-8.608,-3.45,165.844
17008.670618264,0.061,-0.1509,0.9971,-8.608,-3.444,165.844
17008.770618279,0.0601,-0.1479,0.998,-8.613,-3.45,165.844
17008.870618313,0.0615,-0.1514,0.9995,-8.613,-3.45,165.844
17008.970618402,0.0605,-0.1548,0.9985,-8.608,-3.45,165.844
17009.070618472,0.061,-0.1523,0.9971,-8.613,-3.45,165.844
17009.170618561,0.061,-0.1528,0.9971,-8.613,-3.45,165.844
17009.270618651,0.0601,-0.1499,1.0015,-8.613,-3.45,165.844
17009.370618684,0.0601,-0.1509,0.999,-8.613,-3.45,165.844
17009.47061881,0.062,-0.1528,0.999,-8.613,-3.455,165.844
17009.570618881,0.0605,-0.1504,0.998,-8.613,-3.455,165.844
17009.67061897,0.062,-0.1548,0.9976,-8.613,-3.455,165.844
17009.770619041,0.061,-0.1514,0.998,-8.619,-3.455,165.844
17009.870619149,0.0615,-0.1499,0.9985,-8.619,-3.461,165.844
17009.970619201,0.061,-0.1514,0.999,-8.619,-3.461,165.844
17010.07061929,0.061,-0.1519,0.9976,-8.619,-3.461,165.844
17010.170619361,0.0615,-0.1514,0.9985,-8.619,-3.461,165.844
17010.270619413,0.061,-0.1509,0.9971,-8.619,-3.461,165.844
17010.370619521,0.063,-0.1533,0.9976,-8.624,-3.461,165.844
17010.470619592,0.0605,-0.1494,0.998,-8.624,-3.461,165.844
17010.570619681,0.0605,-0.1523,1.0005,-8.624,-3.461,165.844
17010.670619733,0.062,-0.1484,0.9985,-8.624,-3.461,165.844
17010.770619859,0.062,-0.1514,1.0,-8.624,-3.461,165.844
17010.87061993,0.0596,-0.1484,0.9966,-8.624,-3.461,165.844
17010.970620019,0.0586,-0.1475,0.9956,-8.624,-3.461,165.844
17011.070620127,0.0625,-0.1519,1.0,-8.624,-3.461,165.844
17011.170620161,0.0601,-0.1514,0.999,-8.624,-3.461,165.844
17011.270620176,0.0605,-0.1519,0.999,-8.624,-3.461,165.844
17011.370620229,0.0601,-0.1484,0.9961,-8.624,-3.461,165.844
17011.470620318,0.0605,-0.1509,0.9971,-8.63,-3.461,165.844
17011.570620426,0.061,-0.1514,0.998,-8.63,-3.461,165.844
17011.670620552,0.061,-0.1519,0.9985,-8.63,-3.461,165.844
17011.770620623,0.0605,-0.1514,0.9985,-8.624,-3.444,165.839
17011.870620694,0.0596,-0.1494,0.999,-8.624,-3.433,165.839
17011.970620783,0.064,-0.1553,0.9961,-8.619,-3.433,165.839
17012.070620798,0.0415,-0.1704,1.0239,-8.564,-3.378,165.811
17012.170620906,0.0771,-0.1675,0.998,-8.416,-3.384,165.91
17012.270620977,0.0508,-0.1323,1.0151,-8.295,-3.483,166.234
17012.370621011,0.0601,-0.1641,1.0103,-8.47,-3.543,166.448
17012.470621119,0.0645,-0.147,0.9941,-8.52,-3.516,166.712
17012.570621134,0.0615,-0.1494,1.0,-8.536,-3.521,166.948
17012.670621186,0.0591,-0.1465,0.9937,-8.569,-3.505,167.184
17012.770621202,0.062,-0.1533,0.9976,-8.591,-3.494,167.443
17012.87062131,0.061,-0.1455,0.9966,-8.586,-3.488,167.684
17012.970621436,0.0601,-0.1528,0.9976,-8.602,-3.483,167.904
17013.070621489,0.0522,-0.1494,0.9971,-8.619,-3.466,168.113
17013.170621578,0.0737,-0.1265,0.9844,-8.553,-3.494,168.338
17013.270621667,0.0586,-0.1528,0.9995,-8.58,-3.483,168.486
17013.370621683,0.0615,-0.1465,0.9966,-8.547,-3.472,168.662
17013.470621735,0.0605,-0.1514,0.998,-8.553,-3.472,168.821
17013.570621788,0.0576,-0.1504,0.9976,-8.558,-3.472,168.986
17013.670621896,0.0649,-0.1377,0.9946,-8.492,-3.461,169.162
17013.770621948,0.0684,-0.1509,0.9985,-8.438,-3.45,169.277
17013.870621963,0.0488,-0.1582,0.9902,-8.278,-3.312,169.36
17013.970622034,0.0625,-0.1299,0.9937,-7.91,-3.296,169.547
17014.070622087,0.062,-0.1431,1.002,-7.877,-3.433,169.629
17014.170622213,0.0625,-0.1411,0.9985,-7.938,-3.499,169.623
17014.270622284,0.0635,-0.1406,1.001,-7.943,-3.527,169.623
17014.370622392,0.062,-0.1362,0.9995,-7.943,-3.538,169.607
17014.470622519,0.0615,-0.1401,1.0,-7.976,-3.543,169.525
17014.57062259,0.064,-0.1392,1.0,-7.998,-3.56,169.387
17014.670622661,0.063,-0.1406,0.999,-8.004,-3.571,169.255
17014.770622695,0.063,-0.1416,1.0005,-8.015,-3.576,169.129
17014.870622766,0.063,-0.1421,1.001,-8.009,-3.576,169.03
17014.970622837,0.0625,-0.1372,0.999,-8.004,-3.576,168.981
17015.070622852,0.0645,-0.1426,1.0029,-8.009,-3.576,168.975
17015.170622886,0.062,-0.1387,0.9976,-8.004,-3.576,169.008
17015.270623013,0.0605,-0.1416,0.999,-8.004,-3.576,169.085
17015.370623028,0.0635,-0.1416,1.0015,-8.009,-3.571,169.239
17015.470623062,0.0625,-0.1382,0.9985,-8.009,-3.571,169.42
17015.570623078,0.064,-0.1372,0.998,-8.004,-3.571,169.596
17015.670623186,0.063,-0.1396,0.9995,-8.004,-3.576,169.744
17015.770623276,0.0635,-0.1401,0.9995,-8.009,-3.576,169.871
17015.870623365,0.0625,-0.1426,1.0015,-8.009,-3.576,169.975
17015.970623418,0.063,-0.1411,1.0,-8.009,-3.582,170.057
17016.070623507,0.062,-0.1387,0.998,-8.015,-3.582,170.085
17016.17062356,0.064,-0.1431,1.0024,-8.015,-3.587,170.057
17016.270623668,0.064,-0.1411,0.998,-8.015,-3.587,170.008
17016.370623776,0.064,-0.1401,0.999,-8.015,-3.587,169.953
17016.470623792,0.064,-0.1396,0.9995,-8.015,-3.593,169.904
17016.570623845,0.064,-0.1406,1.0,-8.015,-3.598,169.86
17016.670623934,0.0635,-0.1401,1.0005,-8.02,-3.598,169.794
17016.770624024,0.0625,-0.1367,1.0005,-8.026,-3.604,169.717
17016.870624039,0.0654,-0.1387,0.999,-8.031,-3.604,169.64
17016.970624055,0.0645,-0.1382,0.9995,-8.042,-3.604,169.552
17017.070624071,0.062,-0.1436,1.001,-8.075,-3.604,169.475
17017.17062416,0.064,-0.1396,1.0005,-8.064,-3.609,169.409
17017.270624213,0.064,-0.1421,1.0005,-8.058,-3.609,169.332
17017.370624247,0.062,-0.1416,1.0015,-8.058,-3.615,169.244
17017.470624337,0.062,-0.1426,1.0015,-8.058,-3.615,169.129
17017.570624371,0.0654,-0.1411,0.9966,-8.064,-3.615,168.975
17017.670624442,0.0659,-0.1406,0.9971,-8.058,-3.615,168.783
17017.770624458,0.063,-0.1431,1.0005,-8.069,-3.62,168.585
17017.870624585,0.0645,-0.1406,0.9985,-8.064,-3.62,168.382
17017.970624693,0.063,-0.1421,0.9985,-8.064,-3.62,168.173
17018.07062482,0.0664,-0.1416,0.999,-8.064,-3.62,167.953
17018.170624946,0.062,-0.145,1.0,-8.064,-3.625,167.734
17018.270625018,0.0615,-0.1411,1.0005,-8.069,-3.625,167.52
17018.370625107,0.064,-0.1431,1.0029,-8.069,-3.625,167.311
17018.470625179,0.0635,-0.1436,1.0015,-8.075,-3.625,167.108
17018.570625213,0.0649,-0.1377,0.999,-8.086,-3.625,166.904
17018.670625247,0.063,-0.1416,1.002,-8.097,-3.631,166.718
17018.770625263,0.0649,-0.1436,0.999,-8.108,-3.631,166.536
17018.870625334,0.063,-0.1436,0.9985,-8.108,-3.631,166.377
17018.970625368,0.0625,-0.1426,1.0015,-8.108,-3.631,166.245
17019.070625384,0.0649,-0.1421,0.9976,-8.113,-3.631,166.141
17019.170625492,0.0635,-0.144,0.999,-8.163,-3.625,166.047
17019.270625527,0.062,-0.1465,1.0005,-8.207,-3.625,165.959
17019.370625561,0.064,-0.1436,0.9971,-8.207,-3.625,165.877
17019.470625577,0.064,-0.144,0.999,-8.207,-3.631,165.8
17019.570625611,0.0635,-0.145,1.0005,-8.207,-3.625,165.723
17019.670625682,0.0635,-0.1416,0.9985,-8.207,-3.631,165.657
17019.770625717,0.064,-0.1445,0.9985,-8.212,-3.631,165.591
17019.870625825,0.0645,-0.145,0.9995,-8.212,-3.631,165.531
17019.970625952,0.063,-0.145,1.001,-8.218,-3.631,165.471
17020.070626042,0.0645,-0.144,0.998,-8.218,-3.631,165.416
17020.170626169,0.0645,-0.1436,1.001,-8.218,-3.631,165.366
17020.270626295,0.0635,-0.1406,1.0005,-8.218,-3.631,165.317
17020.37062633,0.0659,-0.1431,0.9985,-8.223,-3.636,165.273
17020.47062642,0.0566,-0.1514,1.0146,-8.223,-3.636,165.229
17020.570626528,0.062,-0.145,0.998,-8.223,-3.636,165.19
17020.670626581,0.0654,-0.1445,0.9971,-8.223,-3.636,165.152
17020.770626652,0.0674,-0.1436,0.9961,-8.223,-3.636,165.119
17020.870626742,0.0625,-0.1406,1.001,-8.223,-3.636,165.086
17020.970626814,0.0698,-0.145,0.9917,-8.223,-3.636,165.053
17021.070626904,0.063,-0.1455,0.999,-8.223,-3.636,165.02
17021.170626919,0.064,-0.145,1.0005,-8.229,-3.636,164.993
17021.270626954,0.0625,-0.145,1.001,-8.229,-3.642,164.971
17021.370627025,0.0645,-0.1426,0.998,-8.234,-3.636,164.943
17021.470627078,0.0737,-0.1455,0.9878,-8.234,-3.642,164.921
17021.57062715,0.061,-0.146,1.0,-8.234,-3.642,164.899
17021.670627203,0.063,-0.1426,0.9995,-8.245,-3.642,164.877
17021.770627237,0.0645,-0.146,0.998,-8.245,-3.642,164.861
17021.87062729,0.0649,-0.145,0.999,-8.24,-3.647,164.839
17021.97062738,0.0645,-0.1455,0.9995,-8.245,-3.647,164.822
17022.070627451,0.0645,-0.147,1.0,-8.256,-3.653,164.806
17022.17062756,0.0654,-0.144,0.998,-8.256,-3.658,164.795
17022.270627594,0.0645,-0.1479,1.0005,-8.256,-3.658,164.778
17022.370627629,0.0654,-0.1465,0.9985,-8.251,-3.658,164.762
17022.470627645,0.0635,-0.1479,1.0,-8.251,-3.658,164.751
17022.570627679,0.0649,-0.1475,0.9985,-8.251,-3.658,164.74
17022.670627695,0.0605,-0.1431,1.0049,-8.24,-3.658,164.729
17022.770627748,0.0645,-0.1445,0.9951,-8.24,-3.653,164.718
17022.870627857,0.064,-0.1465,1.0005,-8.245,-3.658,164.707
17022.970627873,0.0645,-0.146,0.9995,-8.245,-3.653,164.696
17023.070628,0.0625,-0.1484,1.0,-8.245,-3.653,164.691
17023.17062809,0.0649,-0.1436,0.999,-8.245,-3.653,164.68
17023.270628198,0.062,-0.1436,1.001,-8.245,-3.653,164.674
17023.370628307,0.062,-0.1465,1.0029,-8.245,-3.647,164.663
17023.47062836,0.0654,-0.1421,0.998,-8.251,-3.653,164.658
17023.570628469,0.0625,-0.144,1.0034,-8.256,-3.653,164.652
17023.670628485,0.064,-0.1445,0.9985,-8.256,-3.658,164.647
17023.770628593,0.0649,-0.145,0.998,-8.256,-3.658,164.641
17023.870628628,0.0645,-0.1455,0.999,-8.256,-3.658,164.636
17023.970628718,0.0625,-0.1445,1.001,-8.256,-3.658,164.63
17024.07062879,0.0645,-0.145,0.999,-8.256,-3.658,164.625
17024.170628824,0.0649,-0.146,0.999,-8.262,-3.658,164.619
17024.270628933,0.0635,-0.1436,1.0,-8.262,-3.658,164.614
17024.370629005,0.0679,-0.1475,0.9966,-8.267,-3.658,164.614
17024.470629021,0.0645,-0.1465,0.9985,-8.273,-3.658,164.608
17024.570629037,0.0669,-0.146,0.998,-8.267,-3.658,164.603
17024.670629127,0.0649,-0.1455,0.9971,-8.256,-3.658,164.603
17024.770629254,0.0645,-0.1504,0.9932,-8.229,-3.664,164.597
17024.870629344,0.0625,-0.1401,1.0161,-8.146,-3.702,164.564
17024.970629453,0.0649,-0.1396,0.9976,-8.108,-3.675,164.504
17025.070629506,0.0645,-0.146,1.0049,-8.075,-3.664,164.482
17025.170629559,0.061,-0.1396,1.0044,-8.026,-3.642,164.454
17025.270629612,0.0649,-0.1406,0.9995,-8.009,-3.625,164.355
17025.37062974,0.0654,-0.1343,1.0,-8.047,-3.593,164.119
17025.470629848,0.0659,-0.1431,0.999,-8.196,-3.582,163.702
17025.570629864,0.0571,-0.1587,1.0034,-8.394,-3.593,163.262
17025.670629918,0.0649,-0.1597,0.998,-8.558,-3.587,163.015
17025.770629952,0.062,-0.1582,0.9971,-8.613,-3.625,162.955
17025.870630024,0.0605,-0.147,0.9976,-8.575,-3.636,162.977
17025.970630096,0.0659,-0.1313,0.9868,-8.487,-3.653,163.043
17026.070630168,0.064,-0.1455,1.0024,-8.509,-3.664,163.098
17026.170630239,0.062,-0.1294,1.0054,-8.503,-3.642,163.163
17026.270630366,0.061,-0.1431,1.0029,-8.503,-3.658,163.268
17026.370630401,0.0659,-0.1523,1.001,-8.503,-3.669,163.383
17026.470630454,0.0674,-0.1523,0.9961,-8.503,-3.697,163.477
17026.570630563,0.0669,-0.1523,1.0059,-8.476,-3.702,163.542
17026.670630672,0.0605,-0.1416,0.9961,-8.448,-3.631,163.608
17026.770630725,0.0601,-0.1494,1.002,-8.432,-3.593,163.685
17026.870630853,0.063,-0.1489,1.001,-8.405,-3.571,163.762
17026.970630906,0.0591,-0.1558,1.0054,-8.328,-3.543,163.861
17027.070630922,0.063,-0.1431,0.9966,-8.168,-3.527,164.009
17027.170631049,0.0664,-0.1401,0.9946,-7.982,-3.543,164.174
17027.270631103,0.0659,-0.1338,0.999,-7.822,-3.582,164.301
17027.370631156,0.0625,-0.1255,0.9951,-7.679,-3.598,164.394
17027.470631172,0.0693,-0.1289,1.0068,-7.537,-3.615,164.471
17027.570631263,0.0669,-0.1221,1.0039,-7.311,-3.642,164.515
17027.670631353,0.0728,-0.1147,0.999,-7.262,-3.593,164.564
17027.770631462,0.0566,-0.0728,1.0063,-7.861,-2.796,164.603
17027.870631534,0.0503,-0.1396,1.0391,-7.707,-2.736,164.806
17027.970631661,0.0664,-0.1177,1.0015,-7.471,-3.071,164.855
17028.070631733,0.0562,-0.127,1.0015,-7.46,-3.131,164.855
17028.170631768,0.0459,-0.1323,1.0059,-7.718,-2.878,164.784
17028.270631877,0.061,-0.0459,0.9951,-8.053,-2.488,164.905
17028.370632004,0.0073,-0.2339,0.9941,-8.981,-1.994,164.339
17028.470632132,0.0078,-0.207,1.0278,-10.514,-1.28,163.883
17028.570632203,0.0151,-0.2349,1.001,-12.211,-0.324,164.41
17028.670632331,-0.0234,-0.2686,0.978,-15.134,1.0,165.372
17028.770632403,-0.0654,-0.313,0.9883,-17.952,1.906,165.866
17028.87063253,-0.0356,-0.4199,0.9414,-21.028,1.934,166.514
17028.970632639,-0.063,-0.3877,0.9741,-24.45,2.664,167.569
17029.070632785,-0.0713,-0.479,0.8687,-29.515,3.538,167.421
17029.170632857,-0.0654,-0.5874,0.8213,-35.469,3.373,167.893
17029.270632947,-0.0957,-0.606,0.8135,-39.716,3.395,169.678
17029.370633075,-0.0854,-0.6909,0.7285,-42.792,3.439,171.178
17029.470633184,-0.083,-0.7183,0.7432,-45.11,3.741,172.277
17029.570633256,-0.0952,-0.749,0.6406,-47.236,4.702,172.326
17029.670633346,-0.1035,-0.7583,0.6709,-48.895,5.07,172.952
17029.770633474,-0.1221,-0.7974,0.5962,-49.807,5.817,172.881
17029.87063362,-0.1216,-0.7964,0.6108,-50.449,5.713,174.276
17029.970633636,-0.1104,-0.7847,0.6284,-50.493,5.598,175.441
17030.070633653,-0.1094,-0.814,0.6113,-51.515,5.724,175.743
17030.170633762,-0.1182,-0.8262,0.5742,-53.613,5.878,176.028
17030.270633852,-0.1187,-0.813,0.5625,-55.305,5.685,176.951
17030.370633961,-0.0864,-0.8755,0.52,-57.206,4.993,177.995
17030.470633996,-0.0688,-0.8677,0.4468,-60.974,4.048,179.105
17030.570634068,-0.0723,-0.9092,0.4624,-64.319,2.631,-178.566
17030.670634103,-0.041,-0.8955,0.4038,-66.242,1.912,-177.188
17030.770634157,-0.0547,-0.9316,0.3633,-67.797,2.076,-176.808
17030.870634266,-0.0664,-0.959,0.3354,-69.263,2.747,-176.276
17030.970634356,-0.0737,-0.9531,0.3037,-72.213,3.389,-175.512
17031.07063441,-0.0845,-0.9834,0.2285,-74.575,3.818,-175.007
17031.170634426,-0.0923,-0.978,0.2275,-76.273,4.021,-174.952
17031.270634554,-0.0928,-0.9985,0.1812,-79.135,3.867,-175.49
17031.370634682,-0.0908,-0.9873,0.1206,-81.519,3.768,-176.138
17031.470634717,-0.0718,-1.0063,0.0713,-83.425,3.527,-175.858
17031.570634789,-0.0708,-0.9902,0.0737,-84.155,3.521,-174.996
17031.670634861,-0.0747,-0.9868,0.0615,-84.771,3.554,-174.38
17031.770634896,-0.0728,-0.9863,0.0391,-86.001,3.455,-173.925
17031.870634987,-0.0679,-1.0244,0.0059,-87.231,2.928,-173.611
17031.970635114,-0.0635,-0.9946,0.0112,-88.517,2.494,-173.573
17032.070635242,-0.0518,-1.0,-0.0132,-88.83,2.494,-173.139
17032.170635332,-0.0513,-0.9985,-0.0122,-88.912,2.538,-172.491
17032.270635442,-0.0464,-1.0078,-0.0176,-88.929,2.521,-171.727
17032.370635551,-0.0503,-1.0034,-0.0073,-88.956,2.527,-171.178
17032.470635641,-0.0503,-0.9966,-0.0093,-88.792,2.516,-170.766
17032.570635695,-0.0449,-1.0063,0.0044,-86.38,2.109,-169.124
17032.670635804,-0.0479,-0.9985,0.1538,-80.513,0.764,-165.866
17032.770635913,0.0146,-0.9702,0.2593,-74.724,-0.604,-163.856
17032.870635948,0.0332,-0.9229,0.3154,-70.076,-1.588,-162.411
17032.970636021,0.0723,-0.9019,0.4331,-65.638,-3.142,-160.181
17033.070636037,0.0532,-0.854,0.5508,-60.381,-4.433,-160.021
17033.170636091,0.1113,-0.8359,0.6035,-53.86,-5.416,-160.79
17033.270636126,0.1133,-0.7637,0.6362,-47.889,-5.449,-161.433
17033.370636198,0.1177,-0.6558,0.7388,-41.891,-5.268,-161.933
17033.470636307,0.0957,-0.5562,0.8169,-35.013,-4.016,-163.51
17033.570636417,0.0664,-0.4404,0.9395,-28.548,-2.9,-164.745
17033.67063647,0.0425,-0.3652,0.9619,-22.989,-1.659,-166.289
17033.770636506,0.0073,-0.3276,0.9536,-18.858,-0.467,-167.948
17033.870636559,0.0332,-0.3169,0.9966,-16.968,-0.67,-168.223
17033.970636613,0.0649,-0.2383,1.0205,-14.568,-1.104,-168.063
17034.070636704,0.0703,-0.2231,0.9961,-11.365,-1.774,-169.146
17034.170636757,0.0547,-0.1313,1.0039,-10.657,-2.12,-169.678
17034.270636774,0.0586,-0.1367,0.9717,-10.393,-2.159,-170.541
17034.370636883,0.0488,-0.1431,0.999,-10.811,-1.763,-171.48
17034.470636993,0.0439,-0.1353,0.999,-10.739,-1.807,-172.326
17034.570637083,0.0469,-0.1592,1.0044,-10.876,-1.956,-173.15
17034.670637137,0.0522,-0.1572,0.9976,-10.915,-2.137,-173.947
17034.770637228,0.0454,-0.1572,0.9907,-10.926,-2.351,-174.771
17034.870637282,0.0518,-0.1562,1.0112,-10.904,-2.521,-175.545
17034.970637335,0.0522,-0.1753,0.9966,-10.992,-2.516,-176.259
17035.070637445,0.0566,-0.1655,0.9976,-10.948,-2.543,-176.874
17035.170637498,0.0483,-0.1611,0.9937,-10.904,-2.527,-177.49
17035.270637552,0.0503,-0.1841,0.9971,-10.975,-2.549,-178.044
17035.370637625,0.0513,-0.1719,0.9946,-10.887,-2.582,-178.55
17035.470637678,0.0522,-0.1694,0.999,-10.805,-2.604,-179.033
17035.570637714,0.0518,-0.1709,0.9951,-10.745,-2.626,-179.495
17035.670637842,0.0522,-0.1704,0.9951,-10.684,-2.653,-179.923
17035.770637895,0.0527,-0.1689,0.9961,-10.624,-2.675,179.665
17035.870638005,0.0508,-0.1694,0.9961,-10.569,-2.692,179.275
17035.970638059,0.0532,-0.1699,0.9971,-10.519,-2.714,178.912
17036.070638168,0.0518,-0.1694,0.9956,-10.464,-2.73,178.572
17036.170638203,0.0518,-0.1689,0.9946,-10.421,-2.747,178.248
17036.270638239,0.0522,-0.168,0.9951,-10.382,-2.758,177.946
17036.370638274,0.0527,-0.1689,0.9961,-10.338,-2.774,177.654
17036.470638328,0.0527,-0.1704,0.9961,-10.3,-2.785,177.385
17036.570638456,0.0522,-0.1704,0.9956,-10.261,-2.796,177.133
17036.670638491,0.0522,-0.1694,0.9966,-10.228,-2.807,176.896
17036.770638563,0.0527,-0.1699,0.9951,-10.195,-2.818,176.677
17036.870638673,0.0518,-0.1694,0.9956,-10.162,-2.823,176.468
17036.970638782,0.0513,-0.1685,0.9956,-10.124,-2.834,176.27
17037.070638873,0.0518,-0.1699,0.9966,-10.096,-2.84,176.094
17037.170638946,0.0518,-0.1636,0.9951,-10.063,-2.845,175.919
17037.270639018,0.0522,-0.1665,0.9956,-10.036,-2.856,175.759
17037.370639035,0.0513,-0.1709,0.9961,-10.014,-2.862,175.6
17037.470639052,0.0522,-0.168,0.9971,-9.987,-2.867,175.452
17037.570639143,0.0513,-0.1689,0.9956,-9.965,-2.873,175.314
17037.670639178,0.0518,-0.1685,0.9956,-9.943,-2.878,175.182
17037.770639288,0.0498,-0.168,0.9971,-9.926,-2.884,175.056
17037.870639416,0.0518,-0.1689,0.9961,-9.91,-2.889,174.941
17037.970639433,0.0518,-0.1694,0.9971,-9.893,-2.895,174.831
17038.07063945,0.0508,-0.1685,0.9951,-9.877,-2.895,174.727
17038.170639522,0.0522,-0.1685,0.9956,-9.86,-2.9,174.628
17038.270639631,0.0522,-0.1685,0.9961,-9.849,-2.9,174.534
17038.370639704,0.0513,-0.168,0.9961,-9.833,-2.906,174.446
17038.470639814,0.0527,-0.1694,0.9946,-9.816,-2.906,174.364
17038.570639923,0.0513,-0.1689,0.9951,-9.805,-2.911,174.276
17038.670640033,0.0527,-0.1694,0.9961,-9.794,-2.911,174.194
17038.770640105,0.0522,-0.1689,0.9956,-9.783,-2.911,174.117
17038.870640159,0.0518,-0.1685,0.9966,-9.778,-2.917,174.051
17038.97064025,0.0522,-0.1689,0.9961,-9.767,-2.917,173.985
17039.070640378,0.0508,-0.1689,0.9966,-9.756,-2.917,173.93
17039.170640488,0.0508,-0.1685,0.9971,-9.745,-2.917,173.881
17039.27064056,0.0522,-0.1689,0.9961,-9.739,-2.922,173.831
17039.370640633,0.0522,-0.1685,0.9956,-9.734,-2.922,173.782
17039.470640761,0.0513,-0.168,0.9961,-9.728,-2.922,173.749
17039.570640778,0.0508,-0.1689,0.9961,-9.717,-2.922,173.71
17039.670640888,0.0518,-0.1675,0.9966,-9.712,-2.922,173.672
17039.770641016,0.0518,-0.1689,0.9961,-9.706,-2.922,173.633
17039.870641033,0.0518,-0.168,0.9956,-9.701,-2.928,173.606
17039.970641142,0.0527,-0.168,0.9946,-9.695,-2.928,173.578
17040.070641197,0.0513,-0.1675,0.9966,-9.69,-2.928,173.551
