Time,AccX,AccY,AccZ,AngleX,AngleY,AngleZ
983.301766261,0,0,0,0,0,0
983.425992422,0.0059,-0.2476,0.9805,-14.117,-0.33,166.487
983.526868415,0.0063,-0.2466,0.9805,-14.117,-0.33,166.487
983.628883336,0.0059,-0.2471,0.9814,-14.117,-0.33,166.487
983.735705557,0.0054,-0.2451,0.9805,-14.117,-0.33,166.487
983.84174198,0.0063,-0.2476,0.9795,-14.112,-0.324,166.487
983.94193227,0.0034,-0.2456,0.981,-14.112,-0.319,166.487
984.04547758,0.0054,-0.2461,0.9795,-14.123,-0.313,166.481
984.148377575,0.0015,-0.2437,0.981,-14.09,-0.302,166.481
984.24859955,0.0005,-0.2422,0.981,-14.052,-0.258,166.47
984.351669342,0.0034,-0.251,0.9829,-14.024,-0.253,166.465
984.454770318,0.002,-0.2388,0.9824,-13.991,-0.247,166.465
984.554939811,0.0039,-0.2417,0.981,-13.991,-0.253,166.465
984.65793314,0.0039,-0.2417,0.9814,-13.986,-0.258,166.47
984.758143966,0.0044,-0.2437,0.9805,-13.98,-0.258,166.47
984.861198332,0.0039,-0.2437,0.9814,-13.98,-0.258,166.47
984.961206917,0.0044,-0.2441,0.981,-13.98,-0.258,166.47
985.064278746,0.0039,-0.2441,0.9814,-13.98,-0.258,166.47
985.164434535,0.0039,-0.2437,0.981,-13.975,-0.264,166.47
985.264637806,0.0044,-0.2432,0.981,-13.975,-0.264,166.47
985.367632264,0.0044,-0.2441,0.9805,-13.975,-0.258,166.47
985.469591129,0.0049,-0.2432,0.9814,-13.969,-0.264,166.47
985.570166252,0.0044,-0.2427,0.9814,-13.969,-0.264,166.47
985.671304931,0.0029,-0.2432,0.9805,-13.969,-0.264,166.47
985.771346683,0.0049,-0.2451,0.9819,-13.969,-0.264,166.47
985.874353456,0.0039,-0.2432,0.98,-13.969,-0.264,166.47
985.977663507,0.0054,-0.2441,0.9805,-13.969,-0.264,166.47
986.077745944,0.0029,-0.2427,0.9805,-13.969,-0.264,166.47
986.180894792,0.0039,-0.2407,0.9795,-13.969,-0.258,166.503
986.281021877,0.0049,-0.2441,0.981,-13.969,-0.264,166.52
986.381082518,0.0034,-0.2441,0.9814,-13.969,-0.258,166.525
986.48208753,0.0034,-0.2422,0.9819,-13.964,-0.253,166.52
986.58419208,0.0054,-0.2427,0.9805,-13.958,-0.247,166.487
986.684384647,0.0039,-0.2417,0.9805,-13.969,-0.231,166.448
986.787506087,0.0039,-0.2437,0.9814,-13.98,-0.225,166.437
986.887534617,0.0054,-0.2451,0.981,-13.986,-0.225,166.426
986.987840091,0.0029,-0.2437,0.9814,-13.98,-0.214,166.388
987.088343881,0.0034,-0.2451,0.9805,-13.997,-0.198,166.371
987.188655115,0.0034,-0.2446,0.981,-14.002,-0.198,166.366
987.288964256,0.0034,-0.2422,0.9805,-14.002,-0.192,166.366
987.391601177,0.0039,-0.2446,0.9814,-14.002,-0.198,166.366
987.49475382,0.001,-0.2456,0.981,-14.002,-0.192,166.366
987.59524698,0.0059,-0.2417,0.9819,-13.997,-0.203,166.382
987.699166606,0.0044,-0.2437,0.981,-14.002,-0.209,166.371
987.800163081,0.0063,-0.2466,0.981,-14.008,-0.209,166.366
987.901869501,0.0029,-0.2441,0.9814,-14.002,-0.198,166.349
988.003936773,0.0044,-0.2441,0.9805,-14.008,-0.192,166.344
988.104255174,0.0034,-0.2446,0.981,-14.008,-0.187,166.339
988.206612261,0.0029,-0.2451,0.98,-14.013,-0.181,166.339
988.307053532,0.0034,-0.2451,0.9795,-14.019,-0.181,166.339
988.407672062,0.0039,-0.2446,0.981,-14.03,-0.176,166.339
988.507738166,0.0044,-0.2456,0.981,-14.035,-0.17,166.339
988.610316532,0.0039,-0.2456,0.981,-14.041,-0.176,166.333
988.710731895,0.0034,-0.2466,0.9805,-14.046,-0.17,166.333
988.811568796,0.0034,-0.2471,0.9795,-14.057,-0.17,166.333
988.914302272,0.0029,-0.2461,0.981,-14.062,-0.176,166.333
989.01662786,0.0034,-0.2461,0.9819,-14.062,-0.176,166.333
989.116906816,0.0054,-0.2446,0.981,-14.073,-0.181,166.333
989.218894792,0.0039,-0.2485,0.98,-14.084,-0.192,166.339
989.319797119,0.0039,-0.2466,0.9805,-14.079,-0.198,166.339
989.419805815,0.0039,-0.248,0.9795,-14.073,-0.203,166.339
989.52297944,0.0034,-0.2466,0.9805,-14.068,-0.209,166.339
989.625980639,0.0044,-0.2471,0.9805,-14.068,-0.209,166.339
989.727261559,0.0039,-0.2471,0.98,-14.068,-0.209,166.339
989.835098984,0.0039,-0.2476,0.9805,-14.062,-0.214,166.339
989.94107463,0.0049,-0.248,0.98,-14.068,-0.214,166.344
990.045018682,0.0039,-0.2471,0.98,-14.068,-0.214,166.344
990.145039026,0.0044,-0.2476,0.9805,-14.062,-0.22,166.344
990.246860836,0.0034,-0.2466,0.98,-14.062,-0.22,166.344
990.349235275,0.0039,-0.2471,0.98,-14.068,-0.22,166.344
990.452460752,0.0039,-0.2476,0.98,-14.073,-0.22,166.344
990.55480521,0.0049,-0.2471,0.9795,-14.079,-0.225,166.344
990.65636113,0.0039,-0.2476,0.979,-14.084,-0.225,166.344
990.75776279,0.0044,-0.2485,0.98,-14.09,-0.225,166.344
990.858724728,0.0049,-0.25,0.9785,-14.095,-0.225,166.344
990.961056241,0.0054,-0.2476,0.9805,-14.095,-0.231,166.344
991.061588438,0.0049,-0.2476,0.9795,-14.095,-0.231,166.344
991.162531413,0.0054,-0.248,0.98,-14.09,-0.231,166.344
991.264061019,0.0054,-0.2471,0.981,-14.057,-0.236,166.344
991.367153069,0.0039,-0.2446,0.9805,-13.98,-0.231,166.339
991.470310083,0.0044,-0.2441,0.98,-13.958,-0.22,166.339
991.570452891,0.0034,-0.2446,0.981,-13.953,-0.209,166.333
991.671210125,0.0034,-0.2446,0.9814,-13.953,-0.203,166.333
991.77144747,0.0044,-0.2412,0.9761,-13.942,-0.198,166.333
991.873250205,0.0029,-0.2432,0.9814,-13.914,-0.198,166.333
991.974299291,0.0039,-0.2417,0.9805,-13.892,-0.198,166.333
992.075189026,0.0034,-0.2441,0.9814,-13.898,-0.192,166.328
992.177686428,0.002,-0.2432,0.9814,-13.903,-0.192,166.328
992.280416701,0.0044,-0.2422,0.9819,-13.892,-0.187,166.328
992.381501676,0.0034,-0.2417,0.981,-13.914,-0.165,166.322
992.481589113,0.0015,-0.2466,0.981,-14.008,-0.148,166.3
992.584074367,0.0015,-0.2539,0.978,-14.139,-0.132,166.273
992.684219879,0.0034,-0.2495,0.9785,-14.172,-0.154,166.289
992.787214393,0.0029,-0.2485,0.9795,-14.172,-0.176,166.3
992.89005998,0.0,-0.2471,0.9775,-14.222,-0.187,166.289
992.991419696,0.0015,-0.2524,0.9741,-14.282,-0.198,166.289
993.093790321,0.0059,-0.2505,0.9775,-14.15,-0.225,166.339
993.196611594,0.0015,-0.2432,0.9878,-13.953,-0.225,166.399
993.299668997,0.001,-0.2402,0.9766,-13.953,0.005,166.393
993.400157953,0.0005,-0.251,0.9785,-14.013,0.0,166.344
993.503016003,0.002,-0.251,0.9771,-14.03,-0.022,166.322
993.603932238,0.002,-0.2427,0.9854,-13.975,-0.044,166.333
993.7069114,0.001,-0.2437,0.978,-13.958,-0.038,166.366
993.80965921,0.0034,-0.2441,0.9849,-13.914,-0.077,166.404
993.911011111,0.0005,-0.2407,0.9868,-13.821,-0.071,166.443
994.014097625,0.0039,-0.2393,0.9805,-13.711,-0.071,166.476
994.11592823,0.0005,-0.2383,0.981,-13.683,-0.071,166.481
994.218844874,0.0005,-0.2378,0.9795,-13.651,-0.082,166.492
994.319613423,0.0034,-0.2393,0.9824,-13.651,-0.093,166.487
994.422341584,0.0024,-0.2383,0.9819,-13.64,-0.099,166.476
994.524171504,0.0029,-0.2378,0.9814,-13.64,-0.104,166.465
994.625994925,0.0,-0.2437,0.978,-13.672,-0.11,166.476
994.728994068,0.0024,-0.2393,0.9834,-13.683,-0.115,166.481
994.829501321,0.0376,-0.1831,0.9951,-13.683,-0.132,166.437
994.9352508,0.0059,-0.2241,0.9795,-13.392,-0.22,166.075
995.035301867,0.0054,-0.2339,0.9814,-13.431,-0.214,166.091
995.135303933,0.0024,-0.2368,0.9844,-13.442,-0.214,166.102
995.241327135,0.0054,-0.231,0.9834,-13.392,-0.187,166.135
995.34133322,0.0029,-0.2354,0.9839,-13.365,-0.165,166.124
995.445207846,0.0039,-0.2334,0.9839,-13.354,-0.159,166.108
995.548415767,0.0034,-0.2339,0.9839,-13.348,-0.159,166.108
995.64918365,0.0054,-0.2319,0.9839,-13.337,-0.154,166.108
995.751654422,0.0029,-0.2339,0.9829,-13.332,-0.154,166.119
995.852746212,0.0034,-0.2334,0.9834,-13.326,-0.154,166.124
995.954949577,0.0029,-0.2344,0.9839,-13.326,-0.154,166.124
996.058120536,0.0044,-0.2339,0.9844,-13.321,-0.159,166.13
996.158143306,0.0034,-0.2339,0.9834,-13.315,-0.159,166.152
996.258277781,0.0044,-0.2334,0.9858,-13.31,-0.165,166.163
996.361217498,0.0029,-0.2324,0.9829,-13.31,-0.154,166.152
996.461620325,0.0005,-0.2373,0.9834,-13.288,-0.148,166.157
996.562105429,0.0034,-0.2319,0.9834,-13.266,-0.126,166.19
996.664111997,0.0024,-0.2314,0.9829,-13.26,-0.11,166.19
996.764193027,0.0034,-0.231,0.9829,-13.255,-0.11,166.19
996.867172411,0.0015,-0.2324,0.9829,-13.255,-0.115,166.207
996.969686629,0.0015,-0.2319,0.9834,-13.255,-0.115,166.212
997.070306751,0.002,-0.2319,0.9839,-13.255,-0.115,166.201
997.171139652,0.0034,-0.2314,0.9834,-13.26,-0.115,166.201
997.274347463,0.0034,-0.2324,0.9829,-13.282,-0.11,166.196
997.37744844,0.0015,-0.2339,0.9834,-13.304,-0.11,166.196
997.480103953,-0.0005,-0.2329,0.9849,-13.321,-0.115,166.185
997.582715578,-0.001,-0.23,0.9839,-13.348,-0.11,166.163
997.684132961,-0.0005,-0.2368,0.9844,-13.376,-0.121,166.13
997.787310641,0.0015,-0.2373,0.9829,-13.376,-0.115,166.13
997.890544192,0.0024,-0.2373,0.9839,-13.381,-0.115,166.119
997.990562815,0.0015,-0.2344,0.9824,-13.381,-0.121,166.091
998.09343518,0.0015,-0.2349,0.9829,-13.381,-0.115,166.069
998.196413157,-0.001,-0.2285,0.9893,-13.359,-0.132,166.064
998.296882687,0.0024,-0.2358,0.98,-13.392,-0.093,166.053
998.399840034,0.0029,-0.2373,0.9839,-13.425,-0.099,166.058
998.50068388,0.0029,-0.2339,0.9829,-13.475,-0.099,166.053
998.601089799,0.0005,-0.2363,0.9819,-13.552,-0.115,166.031
998.70322283,0.0039,-0.2378,0.981,-13.579,-0.126,166.036
998.803491527,0.0049,-0.2422,0.9819,-13.618,-0.132,166.053
998.906630596,0.0039,-0.2407,0.9824,-13.651,-0.143,166.058
999.009573258,0.0049,-0.2402,0.9814,-13.683,-0.159,166.064
999.109665418,0.0054,-0.2397,0.9834,-13.705,-0.17,166.086
999.209995522,0.0039,-0.2417,0.9824,-13.711,-0.17,166.108
999.313303536,0.0049,-0.2407,0.9814,-13.711,-0.17,166.119
999.416392494,0.0044,-0.2451,0.9805,-13.733,-0.176,166.13
999.517820211,0.0059,-0.2427,0.9814,-13.771,-0.192,166.141
999.618626297,0.0054,-0.2417,0.9834,-13.793,-0.209,166.152
999.721459255,0.0029,-0.2251,0.9839,-13.716,-0.214,166.207
999.821645285,0.0059,-0.2441,0.9795,-13.733,-0.214,166.207
999.924796984,0.0049,-0.2432,0.981,-13.722,-0.214,166.223
1000.024951662,0.0039,-0.2378,0.9819,-13.722,-0.22,166.234
1000.12566484,0.0049,-0.2432,0.9834,-13.716,-0.22,166.278
1000.227741928,0.0049,-0.2402,0.9814,-13.711,-0.22,166.317
1000.335461001,0.0054,-0.2417,0.9814,-13.722,-0.22,166.339
1000.436488328,0.0054,-0.2402,0.9814,-13.722,-0.22,166.36
1000.541515529,0.0044,-0.2402,0.9814,-13.722,-0.225,166.382
1000.642556652,0.0049,-0.2407,0.9814,-13.727,-0.225,166.399
1000.745361221,0.0059,-0.2432,0.9819,-13.733,-0.231,166.404
1000.845561159,0.0054,-0.2412,0.98,-13.733,-0.231,166.415
1000.948558135,0.0049,-0.2427,0.9805,-13.727,-0.236,166.432
1001.051239945,0.0059,-0.2427,0.9814,-13.733,-0.236,166.459
1001.154052774,0.0034,-0.2402,0.9829,-13.738,-0.242,166.47
1001.254805712,0.0054,-0.2417,0.981,-13.744,-0.242,166.47
1001.354979927,0.0049,-0.2427,0.9805,-13.749,-0.247,166.47
1001.455076827,0.0044,-0.2407,0.9819,-13.755,-0.247,166.465
1001.558128211,0.0049,-0.2417,0.9819,-13.76,-0.253,166.465
1001.661192281,0.0044,-0.2412,0.981,-13.76,-0.258,166.459
1001.76359872,0.0039,-0.2412,0.9814,-13.766,-0.258,166.448
1001.864723176,0.0044,-0.2407,0.9814,-13.771,-0.258,166.448
1001.964769614,0.0054,-0.2412,0.981,-13.771,-0.258,166.454
1002.067855665,0.0049,-0.2417,0.98,-13.777,-0.264,166.454
1002.16998103,0.0059,-0.2412,0.9819,-13.777,-0.264,166.448
1002.271002412,0.0034,-0.2422,0.9844,-13.788,-0.269,166.443
1002.371134275,0.0034,-0.2412,0.9819,-13.799,-0.258,166.437
1002.474347289,0.0044,-0.2383,0.981,-13.788,-0.264,166.426
1002.576446839,0.0054,-0.2427,0.981,-13.793,-0.264,166.415
1002.677436537,0.0039,-0.2417,0.9795,-13.804,-0.269,166.421
1002.778060697,0.0044,-0.2412,0.9814,-13.826,-0.275,166.415
1002.878218597,0.0049,-0.2417,0.9814,-13.892,-0.264,166.421
1002.981099833,0.0063,-0.2378,0.9834,-13.87,-0.269,166.426
1003.083979106,0.0059,-0.2437,0.981,-13.876,-0.275,166.437
1003.186329304,0.0039,-0.2456,0.9834,-13.881,-0.275,166.454
1003.289429244,0.0068,-0.2402,0.9819,-13.881,-0.28,166.476
1003.392320258,0.0049,-0.2417,0.981,-13.881,-0.286,166.498
1003.493490326,0.0054,-0.2412,0.9814,-13.881,-0.286,166.525
1003.596148099,0.0044,-0.2412,0.981,-13.881,-0.291,166.553
1003.696696388,0.0039,-0.2456,0.9819,-13.887,-0.291,166.58
1003.798515216,0.0049,-0.2471,0.9819,-13.898,-0.291,166.569
1003.901054174,0.0054,-0.2432,0.9814,-13.898,-0.297,166.575
1004.002868779,0.0054,-0.2437,0.9819,-13.898,-0.297,166.569
1004.103593421,0.0054,-0.2427,0.9805,-13.892,-0.297,166.553
1004.206269249,0.0063,-0.2427,0.981,-13.892,-0.302,166.547
1004.308045206,0.0054,-0.2471,0.9829,-13.887,-0.302,166.536
1004.410585608,0.0049,-0.2412,0.9834,-13.903,-0.302,166.536
1004.511329176,0.0034,-0.2485,0.9775,-13.909,-0.302,166.564
1004.614188893,0.0,-0.2402,0.9785,-13.799,-0.291,166.624
1004.714471109,0.001,-0.2402,0.9873,-13.678,-0.302,166.723
1004.814586083,0.0132,-0.2256,0.9727,-13.612,-0.258,166.822
1004.914746279,0.002,-0.2393,0.9775,-13.64,-0.203,166.734
1005.017944071,0.0054,-0.2373,0.9795,-13.771,-0.225,166.646
1005.120440825,0.0039,-0.2314,0.9795,-13.975,-0.264,166.558
1005.223176913,0.0073,-0.2583,0.9819,-14.332,-0.461,166.476
1005.324085962,0.0107,-0.2656,0.9849,-14.634,-0.626,166.454
1005.425068771,0.0098,-0.251,0.9766,-14.722,-0.698,166.448
1005.533713715,0.0093,-0.2534,0.978,-14.716,-0.709,166.459
1005.639751732,0.0093,-0.2471,0.9785,-14.694,-0.709,166.47
1005.743473802,0.0127,-0.2588,0.978,-14.694,-0.709,166.481
1005.843530294,0.0112,-0.2534,0.978,-14.65,-0.703,166.487
1005.94362112,0.0127,-0.2583,0.9775,-14.645,-0.703,166.481
1006.046671208,0.0107,-0.2515,0.9746,-14.689,-0.709,166.448
1006.146750238,0.0156,-0.2637,0.9722,-14.826,-0.769,166.41
1006.249902086,0.0156,-0.2646,0.979,-14.908,-0.84,166.393
1006.353077414,0.0151,-0.2588,0.9766,-14.925,-0.846,166.41
1006.453337333,0.0171,-0.2646,0.9766,-14.936,-0.84,166.432
1006.554117697,0.0161,-0.2637,0.9746,-14.919,-0.835,166.448
1006.654204819,0.0137,-0.2544,0.9746,-14.859,-0.807,166.465
1006.756574351,0.0112,-0.2539,0.9761,-14.81,-0.791,166.476
1006.858339605,0.0132,-0.2544,0.9766,-14.771,-0.78,166.487
1006.958735413,0.0117,-0.2539,0.9766,-14.727,-0.764,166.492
1007.061878316,0.0122,-0.2544,0.9761,-14.705,-0.753,166.503
1007.164028643,0.0132,-0.27,0.9751,-14.65,-0.731,166.531
1007.264787415,0.0107,-0.2402,0.9814,-14.337,-0.643,166.608
1007.365138685,0.0088,-0.2188,0.9897,-14.106,-0.643,166.619
1007.467536754,0.0059,-0.2529,0.981,-14.326,-0.577,166.525
1007.570638194,0.0083,-0.2583,0.9736,-14.672,-0.582,166.421
1007.671532984,0.0088,-0.269,0.9683,-15.062,-0.593,166.377
1007.771551421,0.0132,-0.2559,0.9722,-15.172,-0.659,166.393
1007.871669044,0.0049,-0.2729,0.978,-15.249,-0.681,166.41
1007.971692259,0.0112,-0.2656,0.9717,-15.249,-0.676,166.47
1008.07186114,0.0117,-0.2651,0.978,-15.117,-0.703,166.564
1008.173786598,0.0142,-0.2573,0.9746,-15.007,-0.698,166.635
1008.273874794,0.0127,-0.2583,0.9766,-14.941,-0.692,166.696
1008.37426888,0.0103,-0.2573,0.9775,-14.897,-0.687,166.723
1008.474389151,0.0127,-0.2588,0.9766,-14.881,-0.687,166.74
1008.574450995,0.0098,-0.2578,0.978,-14.848,-0.681,166.756
1008.677369824,0.0122,-0.2563,0.9761,-14.821,-0.67,166.778
1008.777523835,0.0112,-0.2568,0.9771,-14.788,-0.67,166.783
1008.880681164,0.0117,-0.2593,0.9771,-14.744,-0.659,166.789
1008.980698472,0.0103,-0.2559,0.978,-14.678,-0.626,166.827
1009.083850893,0.0107,-0.2534,0.9761,-14.617,-0.599,166.866
1009.187018074,0.0083,-0.2515,0.9795,-14.485,-0.56,166.932
1009.289782272,0.0068,-0.2393,0.98,-14.288,-0.511,166.998
1009.390296136,0.0068,-0.2446,0.979,-14.2,-0.472,166.998
1009.493204983,0.0005,-0.248,0.9785,-14.189,-0.412,166.992
1009.594198403,0.0093,-0.2388,0.9707,-14.183,-0.368,166.992
1009.694323414,0.0034,-0.2407,0.9785,-14.194,-0.357,166.981
1009.795544612,0.0068,-0.2432,0.98,-14.227,-0.374,166.959
1009.896986328,0.0039,-0.2451,0.9805,-14.255,-0.39,166.959
1009.999884249,0.0063,-0.2505,0.9795,-14.343,-0.412,166.981
1010.10233167,0.0063,-0.2476,0.9805,-14.376,-0.439,166.981
1010.203898904,0.0059,-0.2466,0.9785,-14.348,-0.439,166.976
1010.30623964,0.0073,-0.2451,0.9795,-14.315,-0.434,166.97
1010.407861523,0.0068,-0.2495,0.9805,-14.282,-0.428,166.948
1010.508361998,0.0063,-0.249,0.9795,-14.238,-0.406,166.932
1010.611210196,0.0068,-0.2476,0.979,-14.227,-0.401,166.91
1010.712047171,0.0073,-0.249,0.98,-14.211,-0.396,166.91
1010.813372406,0.0063,-0.248,0.9805,-14.189,-0.39,166.893
1010.914121696,0.0059,-0.2446,0.98,-14.167,-0.379,166.877
1011.014168874,0.0054,-0.2466,0.9805,-14.161,-0.379,166.849
1011.114565811,0.0049,-0.2456,0.98,-14.15,-0.368,166.833
1011.214573897,0.0044,-0.248,0.9814,-14.139,-0.363,166.822
1011.315296168,0.0054,-0.2437,0.98,-14.139,-0.357,166.822
1011.417727663,0.0049,-0.2432,0.979,-14.128,-0.335,166.811
1011.520830825,-0.0015,-0.2456,0.9795,-14.145,-0.319,166.811
1011.620836836,0.0034,-0.2368,0.9878,-14.194,-0.242,166.871
1011.723897146,-0.0005,-0.2451,0.98,-14.183,-0.225,166.893
1011.82653303,0.0,-0.2456,0.9775,-14.2,-0.209,166.915
1011.926882208,0.0,-0.2495,0.9771,-14.189,-0.198,166.97
1012.035052801,0.0063,-0.2461,0.9805,-14.211,-0.22,166.976
1012.140931483,0.0039,-0.2544,0.9829,-14.222,-0.225,166.959
1012.241081087,0.0029,-0.2485,0.979,-14.211,-0.22,166.948
1012.344948121,0.0029,-0.2461,0.9824,-14.211,-0.22,166.943
1012.447154671,0.0029,-0.2407,0.9761,-14.167,-0.203,166.91
1012.548108924,0.0039,-0.2563,0.9868,-14.123,-0.192,166.882
1012.648149657,0.0024,-0.2471,0.9814,-14.073,-0.176,166.855
1012.751183041,0.002,-0.2412,0.9785,-14.041,-0.17,166.811
1012.852988202,0.0029,-0.2388,0.98,-14.035,-0.17,166.778
1012.954524844,0.0005,-0.2388,0.978,-14.041,-0.165,166.761
1013.057624803,0.0024,-0.2412,0.9795,-14.057,-0.17,166.729
1013.157732518,0.0034,-0.2471,0.979,-14.084,-0.181,166.663
1013.260880347,0.0029,-0.2437,0.978,-14.112,-0.187,166.597
1013.361046673,0.0044,-0.2432,0.9795,-14.145,-0.198,166.564
1013.463933687,0.0029,-0.2441,0.9805,-14.172,-0.22,166.525
1013.566338404,0.0029,-0.2456,0.9795,-14.216,-0.247,166.487
1013.668031046,0.0049,-0.25,0.98,-14.271,-0.28,166.47
1013.770230189,0.0044,-0.2476,0.9795,-14.321,-0.313,166.47
1013.870247182,0.0059,-0.2495,0.978,-14.37,-0.341,166.47
1013.972686936,0.002,-0.2539,0.98,-14.387,-0.346,166.481
1014.075829283,0.0093,-0.2441,0.9849,-14.249,-0.352,166.531
1014.178982371,0.0034,-0.2407,0.98,-14.134,-0.291,166.553
1014.279034993,0.0044,-0.2437,0.9756,-14.145,-0.236,166.547
1014.379076894,0.0049,-0.2485,0.9785,-14.189,-0.242,166.525
1014.482126185,0.0044,-0.2485,0.9795,-14.233,-0.258,166.492
1014.582821086,0.0059,-0.2505,0.978,-14.293,-0.275,166.47
1014.683722839,0.0054,-0.2505,0.9785,-14.348,-0.291,166.459
1014.785238685,0.0049,-0.2495,0.9785,-14.398,-0.308,166.448
1014.885318603,0.0054,-0.2549,0.9775,-14.458,-0.324,166.437
1014.988127136,0.0054,-0.2534,0.9766,-14.502,-0.346,166.426
1015.089477074,0.0068,-0.2583,0.978,-14.529,-0.357,166.421
1015.191712013,0.0073,-0.2544,0.9766,-14.491,-0.357,166.448
1015.294689305,0.0044,-0.2583,0.9805,-14.431,-0.352,166.476
1015.397698707,0.0059,-0.2524,0.9771,-14.37,-0.335,166.503
1015.500680166,0.0044,-0.2456,0.9824,-14.277,-0.308,166.542
1015.603619253,0.0044,-0.2432,0.979,-14.244,-0.286,166.553
1015.704959766,0.0034,-0.248,0.9795,-14.255,-0.28,166.542
1015.806509815,0.0039,-0.249,0.9795,-14.282,-0.28,166.525
1015.906868605,0.0044,-0.2505,0.981,-14.321,-0.291,166.509
1016.007897524,0.0049,-0.251,0.979,-14.359,-0.297,166.487
1016.110845242,0.0039,-0.251,0.98,-14.387,-0.302,166.487
1016.213836848,0.0039,-0.251,0.979,-14.403,-0.308,166.476
1016.313908452,0.0054,-0.2515,0.979,-14.403,-0.308,166.459
1016.416941003,0.0054,-0.252,0.9805,-14.387,-0.313,166.459
1016.518027719,0.002,-0.2485,0.9785,-14.359,-0.308,166.454
1016.619306602,0.0063,-0.2485,0.9795,-14.354,-0.308,166.432
1016.722379819,0.0059,-0.2505,0.979,-14.354,-0.308,166.421
1016.825430129,0.0044,-0.2515,0.98,-14.354,-0.308,166.415
1016.933198092,0.0044,-0.249,0.9805,-14.354,-0.308,166.41
1017.033211177,0.0049,-0.251,0.979,-14.37,-0.308,166.421
1017.133236577,0.0049,-0.252,0.981,-14.398,-0.313,166.437
1017.24015915,0.0054,-0.25,0.978,-14.414,-0.313,166.448
1017.34317809,0.0054,-0.2515,0.9775,-14.436,-0.319,166.448
1017.446317122,0.0059,-0.2505,0.979,-14.447,-0.319,166.454
1017.549400358,0.0063,-0.2534,0.978,-14.48,-0.33,166.465
1017.649598,0.0063,-0.2534,0.9785,-14.513,-0.341,166.47
1017.751787513,0.0059,-0.2544,0.9775,-14.535,-0.346,166.47
1017.852702247,0.0059,-0.2559,0.9785,-14.546,-0.352,166.454
1017.953837148,0.0054,-0.252,0.9771,-14.557,-0.352,166.443
1018.056714014,0.0054,-0.2544,0.978,-14.557,-0.357,166.448
1018.159851176,0.0049,-0.2515,0.9795,-14.546,-0.357,166.437
1018.259866835,0.0068,-0.2539,0.978,-14.524,-0.357,166.437
1018.362382626,0.0049,-0.251,0.9775,-14.496,-0.352,166.437
1018.464009676,0.0059,-0.2534,0.98,-14.474,-0.346,166.437
1018.566258152,0.0059,-0.2495,0.9785,-14.447,-0.341,166.437
1018.668565462,0.0059,-0.2515,0.979,-14.436,-0.341,166.432
1018.769706307,0.0059,-0.2515,0.978,-14.442,-0.341,166.443
1018.871954043,0.0049,-0.251,0.9795,-14.453,-0.341,166.448
1018.974906094,0.0039,-0.2524,0.979,-14.458,-0.341,166.459
1019.075960624,0.0068,-0.2534,0.9775,-14.442,-0.341,166.476
1019.177931582,0.0068,-0.2471,0.9795,-14.348,-0.352,166.476
1019.28119841,0.0049,-0.2466,0.979,-14.216,-0.456,166.459
1019.382118145,0.0039,-0.249,0.9824,-14.123,-0.522,166.498
1019.48382038,0.0049,-0.2485,0.9814,-14.095,-0.511,166.509
1019.585037299,0.0044,-0.248,0.9839,-14.084,-0.483,166.503
1019.685058829,0.0063,-0.2451,0.9795,-14.134,-0.456,166.476
