Time,AccX,AccY,AccZ,AngleX,AngleY,AngleZ,GyroX,GyroY,GyroZ,MagX,MagY,MagZ
409.848697526,,,,-0.044,-1.917,0.406,,,,-12955,1894,3334
409.948697613,0.0332,-0.001,1.0132,-0.038,-1.917,0.406,0.0,0.0,0.0,-12953,1887,3355
410.048697718,0.0342,0.0,1.0142,-0.038,-1.917,0.406,0.0,0.0,0.0,-12959,1906,3378
410.148697807,0.0342,-0.001,1.0142,-0.038,-1.917,0.406,0.0,0.0,0.0,-12930,1918,3371
410.248697933,0.0347,-0.0005,1.0127,-0.038,-1.917,0.406,0.0,0.0,0.0,-12950,1942,3370
410.348697966,0.0332,0.0,1.0132,-0.038,-1.917,0.406,0.0,0.0,0.0,-12951,1924,3379
410.448698037,0.0342,-0.0005,1.0137,-0.038,-1.917,0.406,0.0,0.0,0.0,-12937,1925,3355
410.548698107,0.0332,-0.0005,1.0142,-0.038,-1.917,0.406,0.0,0.0,0.0,-12947,1924,3379
410.648698252,0.0332,-0.0005,1.0142,-0.038,-1.917,0.406,0.0,0.0,0.0,-12932,1935,3360
410.748698396,0.0332,-0.0005,1.0151,-0.038,-1.917,0.406,0.0,0.0,0.0,-12932,1926,3370
410.848698522,0.0337,-0.0015,1.0146,-0.038,-1.912,0.406,0.0,0.0,0.0,-12946,1911,3350
410.948698666,0.0327,-0.0015,1.0146,-0.038,-1.912,0.406,0.0,0.0,0.0,-12955,1917,3368
411.04869879,0.0327,-0.0015,1.0098,-0.044,-1.912,0.406,0.0,0.0,0.0,-12953,1918,3378
411.148698897,0.0337,-0.001,1.0103,-0.044,-1.917,0.406,0.0,0.0,0.0,-12971,1917,3359
411.248699003,0.0342,-0.0005,1.0151,-0.044,-1.917,0.406,0.0,0.0,0.0,-12962,1916,3346
411.348699147,0.0342,0.0,1.0137,-0.044,-1.917,0.406,0.0,0.0,0.0,-12948,1922,3351
411.44869929,0.0342,0.0,1.0151,-0.044,-1.912,0.406,0.0,0.0,0.0,-12937,1931,3341
411.548699304,0.0352,0.0,1.0137,-0.044,-1.912,0.406,0.0,0.0,0.0,-12950,1937,3351
411.64869943,0.0283,0.0005,1.0068,-0.044,-1.912,0.406,0.0,0.061,0.0,-12953,1935,3348
411.748699518,0.0396,0.0015,1.0112,-0.044,-1.912,0.406,0.061,0.0,0.0,-12959,1937,3364
411.848699569,0.0327,0.002,1.0103,-0.044,-1.912,0.406,0.0,0.0,0.0,-12950,1926,3361
411.948699712,0.0347,-0.0024,1.0127,-0.044,-1.912,0.406,0.061,0.0,0.0,-12970,1924,3362
412.048699741,0.0337,0.001,1.0142,-0.044,-1.906,0.406,0.061,0.0,0.0,-12961,1925,3346
412.148699882,0.0317,0.0005,1.0127,-0.038,-1.906,0.406,0.0,0.061,0.0,-12947,1933,3339
412.248699911,0.0312,-0.002,1.0063,-0.044,-1.901,0.406,-0.061,0.0,0.0,-12941,1929,3350
412.348699996,0.0361,0.0068,1.0063,-0.044,-1.895,0.406,0.061,0.0,0.0,-12960,1933,3354
412.448700026,0.0264,0.0,1.0146,-0.038,-1.895,0.406,0.061,0.061,0.0,-12953,1932,3349
412.548700129,0.0356,0.0024,1.0093,-0.038,-1.895,0.406,0.0,0.0,0.0,-12943,1914,3363
412.648700251,0.0342,0.0015,1.0103,-0.038,-1.895,0.406,0.0,0.0,0.0,-12950,1926,3344
412.748700373,0.0327,0.001,1.0137,-0.033,-1.895,0.406,0.0,0.0,0.0,-12946,1927,3347
412.848700458,0.0342,0.0015,1.0117,-0.022,-1.895,0.406,0.0,0.0,0.0,-12936,1921,3343
412.948700488,0.0347,0.0029,1.0156,-0.016,-1.901,0.406,0.0,0.0,0.0,-12956,1913,3338
413.048700493,0.0337,0.0054,1.0156,-0.005,-1.901,0.406,0.0,0.0,0.0,-12956,1885,3342
413.148700554,0.0317,0.0083,1.0161,0.005,-1.901,0.406,0.0,0.0,0.0,-12931,1952,3260
413.248700597,0.0361,0.0044,1.0142,0.027,-1.901,0.406,0.0,0.0,0.0,-12903,1986,3220
413.348700695,0.0337,0.002,1.0132,0.033,-1.906,0.406,0.0,0.0,0.0,-12853,2040,3226
413.448700738,0.0352,0.0024,1.0151,0.038,-1.906,0.406,0.0,0.0,0.0,-12846,2082,3305
413.548700799,0.0332,-0.0044,1.0142,0.044,-1.906,0.406,0.0,0.0,0.0,-12864,2071,3316
413.648700861,0.0327,0.0015,1.0142,0.038,-1.906,0.406,0.0,0.0,0.0,-12918,1966,3328
413.74870094,0.0337,0.0,1.0137,0.033,-1.906,0.406,0.0,0.0,0.0,-12934,1937,3331
413.848700965,0.0342,0.0039,1.0137,0.033,-1.906,0.406,0.0,0.0,0.0,-12898,2012,3302
413.948701026,0.0327,-0.0034,1.0156,0.033,-1.912,0.406,0.0,0.0,0.0,-12901,2039,3334
414.048701061,0.0342,0.0005,1.0166,0.038,-1.906,0.406,0.0,0.0,0.0,-12958,1924,3361
414.148701208,0.0371,-0.0005,1.0151,0.044,-1.912,0.406,0.0,0.0,0.0,-12990,1841,3352
414.248701317,0.0342,0.0059,1.0127,0.049,-1.912,0.406,0.0,0.0,0.0,-12898,1983,3291
414.348701408,0.0327,0.0039,1.0156,0.066,-1.912,0.406,0.0,0.0,0.0,-12922,2005,3381
414.44870148,0.0347,0.0093,1.0151,0.077,-1.912,0.406,0.0,0.0,0.0,-12953,1935,3405
414.548701571,0.0337,0.0059,1.0073,0.093,-1.912,0.406,0.0,0.0,0.0,-12916,1997,3331
414.648701606,0.0337,0.0103,1.0166,0.115,-1.912,0.406,0.0,0.0,0.0,-12915,1972,3356
414.748701753,0.0308,0.0073,1.0166,0.137,-1.912,0.406,0.0,0.0,0.0,-12887,2004,3269
414.848701881,0.0347,0.0024,1.0132,0.159,-1.912,0.406,0.0,0.0,0.0,-12911,1980,3353
414.948701972,0.0337,0.0039,1.0146,0.17,-1.912,0.406,0.0,0.0,0.0,-12920,1965,3296
415.048702109,0.0352,0.0088,1.0137,0.176,-1.912,0.406,0.0,0.0,0.0,-12950,1936,3305
415.148702135,0.0317,0.0068,1.0132,0.192,-1.912,0.406,0.0,0.0,0.0,-12937,1967,3287
415.248702216,0.0352,0.0078,1.0117,0.209,-1.917,0.406,0.0,0.0,0.0,-12927,1942,3307
415.348702353,0.0352,0.0098,1.0161,0.225,-1.917,0.406,0.0,0.0,0.0,-12979,1892,3343
415.448702435,0.0371,0.0371,1.0151,0.253,-1.917,0.406,0.1221,-0.1221,0.0,-12866,2036,3330
415.548702442,0.0356,0.0688,1.0063,0.368,-1.923,0.417,-0.1221,0.0,-0.1221,-12800,2229,3279
415.648702542,0.0195,0.063,1.0156,0.549,-1.928,0.434,0.061,0.0,0.0,-13080,1750,3344
415.748702586,0.0273,0.0669,1.0171,0.731,-1.912,0.472,0.1221,0.1221,0.3662,-12843,2010,3355
415.848702593,0.0386,0.0723,1.002,0.912,-1.912,0.516,0.0,0.061,0.7935,-12983,1918,3357
415.948702638,0.043,0.0645,1.0161,1.071,-1.906,0.56,-0.2441,0.1831,0.8545,-12789,2131,3374
416.048702727,0.0342,0.0469,1.0073,1.198,-1.895,0.621,0.0,0.1221,0.4883,-12985,1876,3380
416.148702797,0.0327,0.0591,1.0005,1.28,-1.895,0.681,0.1831,0.0,0.5493,-12762,2182,3322
416.248702867,0.0366,0.0747,1.0151,1.368,-1.89,0.742,-0.1221,0.061,0.6714,-12935,1931,3437
416.348702881,0.0439,0.0547,1.0278,1.489,-1.89,0.813,-0.3662,0.061,0.6714,-12925,2022,3372
416.448703006,0.0356,0.0566,1.0342,1.609,-1.895,0.89,-0.061,-0.1831,0.8545,-12850,2112,3391
416.548703021,0.0264,0.061,1.02,1.697,-1.906,0.983,0.0,-0.061,0.9155,-12885,2062,3383
416.648703072,0.0488,0.0391,1.0298,1.758,-1.884,1.082,-0.6104,0.1831,1.0376,-12822,2122,3334
416.748703197,0.0063,0.042,1.0176,1.785,-1.884,1.187,-0.5493,-0.1831,0.9155,-12788,2168,3326
416.84870323,0.0327,0.0654,1.0117,1.824,-1.89,1.307,-0.4883,0.061,1.2207,-12772,2157,3370
416.948703281,0.0322,0.0488,1.0239,1.89,-1.89,1.417,0.061,0.061,1.1597,-12832,2121,3417
417.048703414,0.0273,0.0444,0.9922,1.956,-1.89,1.549,0.0,0.0,1.2207,-12864,2004,3406
417.14870347,0.0044,0.0342,0.9927,1.994,-1.862,1.681,-0.1831,0.3052,1.3428,-12818,2065,3394
417.248703489,0.0547,0.0625,1.0049,2.01,-1.835,1.818,-0.2441,0.3052,1.4648,-12847,2110,3437
417.348703583,0.0264,0.0742,1.0117,2.032,-1.818,1.961,0.0,0.5493,1.5869,-12876,2082,3446
417.448703694,0.043,0.0303,1.0342,2.087,-1.824,2.131,-0.9766,-0.9155,1.8311,-12851,2101,3408
417.548703714,0.0088,0.0356,0.9497,2.131,-1.813,2.335,0.1221,0.9766,1.8311,-12882,2083,3421
417.648703733,0.0938,0.0854,1.0605,2.131,-1.774,2.532,0.0,0.061,2.3193,-12716,2183,3398
417.748703826,0.0396,0.0776,1.0161,2.258,-1.78,2.769,0.5493,-0.4272,2.6245,-12763,2104,3398
417.848703846,0.022,0.0654,0.9883,2.455,-1.829,3.049,0.7324,-0.2441,2.9297,-12751,2126,3417
417.948703957,0.0381,0.0742,1.0454,2.664,-1.78,3.356,0.1221,0.3662,3.2349,-12689,2163,3392
418.048704075,0.0649,0.1206,1.0317,2.834,-1.758,3.713,0.5493,-0.061,3.9673,-12655,2184,3369
418.148704208,0.0059,0.1011,0.9849,3.027,-1.714,4.109,0.4272,0.4883,3.9673,-12629,2198,3392
418.248704231,0.021,0.1196,0.9849,3.252,-1.653,4.548,0.8545,0.4883,4.5166,-12784,2158,3503
418.348704235,0.0435,0.106,1.0469,3.51,-1.571,5.01,0.6714,1.1597,5.0659,-12807,2218,3547
418.448704331,0.0767,0.1074,1.0796,3.708,-1.533,5.499,-1.0986,-0.6104,5.9814,-12904,2173,3648
418.548704354,-0.082,0.0991,1.0132,3.774,-1.445,6.163,-1.8921,0.9766,6.1035,-12771,2256,3604
418.648704395,0.0581,0.1348,0.9849,3.757,-1.346,6.823,-0.2441,0.7324,7.3853,-12724,2298,3605
418.748704454,0.0068,0.1377,1.0068,3.779,-1.252,7.559,-1.6479,1.1597,6.897,-12745,2350,3688
418.848704606,-0.0327,0.1245,0.9795,3.724,-1.088,8.289,-2.8076,0.6714,6.4697,-12694,2393,3714
418.94870474,0.0464,0.145,1.0703,3.735,-1.044,8.877,-1.8311,0.7324,6.0425,-12715,2387,3740
419.048704877,-0.0171,0.1689,0.9614,3.796,-1.016,9.426,-0.8545,-0.6104,4.4556,-12662,2506,3797
419.148704883,-0.0771,0.1675,0.9819,4.037,-0.934,9.926,-0.4883,0.3662,5.249,-12515,2547,3745
419.248704925,0.0039,0.1855,1.0112,4.323,-0.945,10.382,0.9766,-0.4883,4.4556,-12408,2578,3727
419.34870506,0.0093,0.1543,0.9844,4.807,-0.912,10.876,1.5869,1.77,4.6997,-12414,2564,3777
419.448705157,0.0068,0.1841,1.0044,5.114,-0.912,11.25,0.9155,0.0,3.3569,-12466,2559,3840
419.548705181,0.0151,0.126,1.0464,5.466,-0.851,11.596,0.0,2.1362,2.6855,-12422,2589,3854
419.64870526,0.0781,0.1436,0.9761,5.68,-0.851,11.805,-0.4272,0.6714,1.8921,-12372,2612,3863
419.748705303,-0.0132,0.1689,1.0391,5.883,-0.89,12.014,0.8545,-0.9766,2.3193,-12407,2631,3892
419.848705382,0.0312,0.1528,0.9717,6.114,-0.906,12.255,0.3662,1.5259,1.8311,-12445,2607,3900
419.948705443,0.1133,0.186,1.2114,6.229,-0.67,12.469,-0.1221,2.8076,1.9531,-12422,2674,3967
420.04870558,-0.0464,0.0952,1.0425,6.74,-0.637,12.706,1.2817,-0.4883,2.5024,-12225,2660,3867
420.148705585,-0.0278,0.2031,0.8618,6.696,-0.461,12.865,-1.0986,1.709,1.77,-12295,2633,3889
420.248705664,-0.167,0.1094,1.0537,7.031,-0.368,13.398,3.3569,-1.5259,6.897,-12411,2615,3984
420.348705724,-0.1045,0.2158,0.9414,6.74,-0.335,14.365,-4.5166,-0.3662,12.2681,-12397,2666,4034
420.448705747,-0.1831,0.1274,0.9033,6.894,0.209,15.782,0.4883,2.9907,14.5264,-12368,2670,4037
420.548705752,-0.1836,0.1572,1.0225,6.729,0.253,17.133,-4.1504,-4.6997,14.6484,-12358,2763,4055
420.648705812,-0.1763,0.104,0.9482,6.899,0.417,18.622,1.3428,0.0,14.4653,-12171,2842,3996
420.74870591,-0.0947,0.0938,1.0566,7.103,0.769,20.061,2.4414,0.0,14.8315,-12031,2782,3803
420.848705952,-0.0674,0.0923,1.0713,7.372,0.753,21.286,3.1738,-2.1973,10.1318,-11995,2790,3834
420.948705975,0.04,0.0942,1.0396,7.267,0.84,22.132,0.2441,-0.061,6.2256,-11859,2769,3852
421.048706055,-0.0547,0.1069,1.0166,7.234,0.676,22.451,1.709,-1.6479,2.6855,-11870,2692,3864
421.148706076,0.1099,0.0913,0.9536,7.048,0.758,22.764,0.3052,4.7607,2.8687,-11765,2814,3983
421.24870619,-0.0854,0.0571,1.1123,7.037,0.742,23.11,1.1597,-0.7935,4.5166,-11827,2983,4000
421.348706285,-0.0459,0.0259,0.8462,7.064,0.747,23.78,-0.7935,1.2817,8.2397,-11786,3056,3878
421.448706306,-0.2188,0.1167,1.0254,6.861,1.34,24.818,1.9531,2.5024,11.3525,-11790,3042,3892
421.548706327,-0.2153,0.147,0.9873,6.526,1.5,25.922,-4.5776,-5.3711,12.146,-11773,3048,3895
421.648706385,-0.0386,0.1421,1.2021,6.735,1.89,27.241,5.6152,9.5825,11.6577,-11939,3059,4301
421.748706499,-0.1274,0.1816,0.9155,6.85,2.115,28.521,-1.8311,0.3052,13.855,-12085,3066,4500
421.848706631,-0.0396,0.1313,1.2183,7.311,2.324,29.883,3.2959,0.0,13.1836,-11828,3059,4465
421.948706708,-0.229,0.2471,0.8311,7.311,2.598,31.382,-0.5493,1.5259,13.4888,-11938,3082,4652
422.048706711,-0.1235,0.1494,1.0298,7.762,2.741,32.717,-0.9766,1.8921,14.4653,-11654,3148,4627
422.148706746,-0.2349,0.2124,0.999,7.806,3.312,34.239,1.1597,1.0376,14.4043,-11519,3156,4637
422.248706875,-0.1807,0.209,0.958,7.982,3.488,35.645,-0.8545,1.4648,14.8926,-11493,3212,4641
422.348706892,-0.269,0.2134,0.8975,8.015,4.07,37.156,-4.0894,2.5635,14.7095,-11313,3241,4640
422.44870702,-0.1177,0.188,0.9771,8.212,4.389,38.48,-1.8921,2.0752,12.085,-11152,3347,4668
422.548707037,-0.1626,0.251,1.0156,8.289,4.889,39.749,1.8921,2.8687,12.0239,-11096,3349,4723
422.648707184,-0.2085,0.1699,0.8979,8.729,5.164,41.094,-3.1128,2.0752,13.916,-10955,3364,4689
422.748707275,-0.3145,0.1611,1.1245,8.849,5.636,42.517,-0.7324,2.8076,13.4888,-10855,3331,4578
422.848707311,-0.3154,0.1626,0.9312,9.075,5.988,43.967,-0.9155,0.3052,14.4653,-10617,3352,4513
422.948707384,-0.666,0.2842,0.9316,8.839,6.235,45.483,-4.6997,5.9814,16.2964,-10620,3368,4581
423.048707419,-0.2036,0.1309,1.0664,9.36,6.795,47.329,0.9155,1.8311,17.8223,-10460,3349,4587
423.14870756,-0.0762,0.1162,1.2954,9.591,7.031,49.169,-5.6763,-2.9907,20.1416,-10449,3341,4709
423.248707665,-0.4331,0.2402,1.0029,9.575,7.273,49.537,-0.3052,-0.7935,21.0571,-10180,3360,4575
423.348707732,-0.4897,0.1621,0.853,10.794,7.471,45.78,3.3569,1.1597,19.2261,-10030,3300,4554
423.448707836,-0.4165,0.1963,1.0967,11.766,7.954,42.1,2.3804,5.5542,21.4844,-9900,3280,4547
423.548707903,-0.2568,0.1382,1.0571,12.722,8.553,38.798,0.9155,3.7842,20.6909,-9670,3235,4511
423.648707915,-0.4814,0.2109,1.0098,13.42,9.069,35.607,-1.5259,2.2583,23.0713,-9622,3248,4575
423.748708001,-0.5503,0.167,0.9316,14.222,9.712,32.728,-2.0142,3.6011,22.583,-9526,3121,4627
423.848708105,-0.5869,0.1221,0.9131,14.991,10.322,30.053,-2.0752,4.2114,23.5596,-9272,3044,4361
423.948708191,-0.5532,0.04,1.1797,15.551,11.118,27.795,-4.8218,5.6763,25.5737,-8800,3062,3858
424.048708331,-0.6758,-0.0581,0.939,16.304,11.871,25.79,1.4648,0.1221,25.6958,-8631,2904,3495
424.148708446,-0.564,-0.1006,1.0664,16.721,12.667,24.055,-2.6855,-0.1221,26.001,-8608,2734,3563
424.248708562,-0.5356,-0.1401,0.999,16.754,13.37,22.511,-4.2114,-1.1597,27.8931,-8444,2665,3594
424.348708659,-0.3994,-0.167,0.9614,16.529,13.997,20.918,-6.2256,1.0986,24.6582,-8201,2625,3581
424.448708738,-0.6548,-0.1523,0.9883,16.419,14.65,19.374,0.5493,-3.2349,25.0244,-8067,2536,3678
424.548708872,-0.5151,-0.1304,0.9639,16.49,15.337,17.891,1.2817,3.1128,25.7568,-7979,2495,3695
424.648708988,-0.2412,-0.084,1.1807,16.705,16.111,16.326,10.1929,5.6763,26.062,-7904,2444,3588
424.748709122,-0.4341,-0.0063,0.9341,16.342,16.886,14.645,-8.1177,12.6953,22.7051,-7901,2300,3528
424.848709201,-0.6187,0.1577,1.1914,16.194,18.116,12.854,5.0049,-1.5869,23.1323,-7595,2308,3578
424.948709335,-0.4023,-0.0146,0.897,17.935,17.803,11.201,9.5825,-4.5166,28.6255,-7780,2038,4014
425.048709411,-0.7085,0.1025,1.1909,17.798,17.715,9.536,-9.2773,-8.4229,24.6582,-7855,1789,4121
425.148709556,-0.5122,-0.0225,0.812,18.133,17.672,7.701,2.0142,-3.479,25.2686,-7721,1804,3531
425.24870957,-0.3813,0.0005,1.1279,18.572,17.963,6.064,2.4414,4.3335,24.1699,-7397,1633,3470
425.34870964,-0.5229,-0.0083,1.0474,19.028,18.062,4.444,-0.061,0.3662,25.5737,-7210,1566,3406
425.448709748,-0.4434,0.0303,0.9604,18.957,18.594,2.928,-3.6621,2.6245,24.231,-7065,1233,3691
425.548709762,-0.4058,0.0449,0.9243,18.748,18.946,1.126,-4.2725,0.0,23.3765,-7491,1102,3654
425.648709851,-0.4678,0.0293,0.9629,19.149,19.138,-0.67,3.9062,-3.418,23.4375,-7181,1110,3790
425.74870994,-0.603,0.0205,1.0083,19.193,19.006,-2.681,-4.3335,-3.2349,21.7896,-7203,839,3850
425.848709991,-0.374,0.0723,1.0996,18.995,19.089,-4.752,-0.4272,0.3052,20.0195,-7288,807,3837
425.948710061,-0.314,0.0532,0.9375,19.435,19.067,-7.158,7.7515,-0.7324,18.5547,-6985,784,3746
426.048710144,-0.5024,-0.0029,1.1821,19.6,19.1,-9.234,-3.7842,2.1362,21.3013,-7153,528,3811
426.148710279,-0.374,0.0391,0.9077,19.314,19.111,-11.266,-0.4272,-0.6714,21.8506,-7151,377,3855
426.248710283,-0.1621,0.1294,1.165,19.105,19.177,-13.288,0.3662,1.4038,19.7144,-7202,245,3968
426.348710417,-0.2974,0.105,1.0391,18.962,19.166,-15.782,0.061,-1.4038,15.3198,-7215,130,4006
426.448710533,-0.4478,0.1226,0.8276,18.457,18.962,-18.528,-3.0518,-0.6714,15.9302,-7307,14,4020
426.548710575,-0.3096,0.0674,1.0737,18.204,18.973,-20.836,-1.1597,2.1973,17.7612,-7230,-57,3964
426.648710616,-0.2832,0.0312,0.9795,18.133,18.984,-22.978,-0.6714,0.5493,18.6768,-7119,-127,3942
426.748710695,-0.4404,0.0698,1.0547,17.891,18.924,-24.911,-2.0752,-0.061,21.1792,-7197,-302,3949
426.848710718,-0.3921,0.0249,1.0889,17.897,18.836,-26.548,-1.5259,-0.8545,23.6206,-7170,-444,3896
426.948710834,-0.5479,-0.0151,0.9653,18.226,18.836,-27.982,2.5024,-0.4272,24.6582,-7010,-599,3653
427.048710887,-0.5415,-0.0493,1.0195,18.594,19.023,-29.097,-0.9766,3.7842,26.9165,-6999,-783,3645
427.148710992,-0.4614,0.0093,1.0342,18.633,19.237,-30.081,0.061,2.8687,27.71,-7131,-988,3677
427.248711096,-0.4595,-0.0049,0.9058,18.913,19.462,-31.047,-0.9766,1.4648,27.9541,-7125,-1196,3683
427.348711237,-0.5005,-0.0049,1.0317,19.215,19.6,-32.097,-2.6245,0.4883,28.1372,-7233,-1324,3871
427.448711304,-0.459,0.0845,1.0386,19.21,19.731,-33.305,1.3428,0.7324,26.6113,-7367,-1475,4065
427.548711409,-0.5166,0.0889,0.9634,19.633,19.644,-34.662,2.5024,-1.5869,27.6489,-7404,-1606,4158
427.648711476,-0.5684,0.0347,1.0103,20.099,19.655,-35.975,-3.2349,2.9907,26.6724,-7538,-1827,4141
427.748711617,-0.5024,0.0562,0.9546,19.984,19.583,-37.101,-5.188,2.1973,31.25,-7615,-1960,4079
427.848711684,-0.6187,0.0376,0.9473,20.105,19.677,-37.87,-8.9111,6.4697,33.5083,-7673,-2052,4059
427.94871177,-0.6714,0.127,1.1929,20.511,19.962,-38.117,1.0376,2.6855,38.9404,-7794,-2198,4073
428.048711811,-0.7095,0.0933,1.0146,22.083,19.918,-38.188,2.3804,7.4463,40.6494,-7858,-2359,4172
428.148711847,-0.7515,0.0923,1.209,23.406,20.039,-38.013,-0.9155,2.4414,46.0205,-8064,-2631,4304
428.248711864,-0.7803,0.021,1.0117,24.977,19.666,-37.689,1.5869,3.6011,46.0815,-8287,-2825,4531
428.3487119,-0.5972,0.1719,1.3213,26.603,19.286,-37.579,6.7749,-1.8921,46.2036,-8641,-3075,4969
428.448712047,-0.5659,0.1123,1.0,28.251,18.517,-38.15,-1.4648,-1.2817,40.1001,-9059,-3287,5458
428.548712194,-0.6787,0.2158,0.9307,28.696,17.842,-39.122,-3.54,-2.0142,36.499,-9425,-3452,5610
428.648712341,-0.3711,0.1685,0.8848,28.867,17.155,-40.924,-6.2866,-4.3945,25.8789,-9754,-3552,5760
428.748712358,-0.0215,0.2852,0.8135,27.966,17.029,-43.808,-3.8452,3.0518,9.3384,-9745,-3464,5720
428.848712468,0.8057,0.1523,1.2397,27.175,16.177,-47.582,4.6997,0.6104,8.5449,-9798,-3494,5686
428.948712504,0.0225,0.2681,1.1567,26.175,15.623,-51.839,4.5166,-5.8594,-3.54,-10002,-3560,5874
429.048712513,-0.1074,0.2549,0.7798,24.659,15.04,-56.426,-1.1597,-2.5024,-14.5874,-9823,-3631,5503
429.14871259,0.4805,0.0693,1.0415,22.593,14.2,-61.386,-0.1221,-6.4087,-19.7144,-9740,-3676,5091
429.248712705,0.4243,-0.0142,0.7461,20.38,13.145,-67.214,3.8452,-4.5776,-31.1279,-9115,-3518,4427
429.348712726,0.7202,-0.1011,0.9702,17.523,11.986,-73.251,-4.6387,0.1221,-36.1938,-9158,-3590,4058
429.448712859,0.8164,-0.0889,1.0449,14.392,10.964,-79.167,-5.3711,0.9766,-37.7197,-8623,-3260,3731
429.548712992,0.5786,0.0132,0.96,11.629,9.487,-84.754,-1.77,0.1831,-37.9639,-8624,-3138,3727
429.648713106,0.5547,-0.1099,1.1074,10.234,7.811,-90.0,2.2583,-2.9907,-36.438,-8180,-2901,3669
429.748713202,0.2412,-0.0259,0.937,8.899,6.108,-94.724,2.5635,-2.6855,-37.0483,-8269,-2853,3689
429.848713224,0.3467,0.0215,1.0015,7.674,4.444,-98.817,-7.9346,-2.3804,-31.311,-8063,-2669,3850
429.94871332,0.4258,0.1318,0.8916,7.081,3.224,-102.294,2.6245,-2.4414,-29.7241,-7942,-2381,4195
430.048713443,0.1172,0.2192,0.9258,6.932,2.098,-104.535,-2.2583,8.4839,-15.1978,-8142,-2272,4693
430.148713542,-0.0474,0.2939,1.021,6.652,1.599,-105.557,-2.8687,0.6104,-5.9204,-8247,-2066,5111
430.248713566,-0.6191,0.251,0.7524,6.85,1.67,-105.584,-4.2725,2.7466,6.1035,-8347,-1904,5575
430.34871361,-0.5044,0.3164,1.0776,7.245,2.78,-104.485,-0.4883,7.019,24.0479,-8123,-1868,5640
430.44871369,-0.4253,0.2515,1.0981,8.712,3.801,-102.991,10.8032,4.6997,29.7241,-8195,-2404,6103
430.54871377,-0.3472,0.2612,1.1455,9.904,4.301,-101.854,0.3052,-2.6245,21.7285,-8700,-2641,6444
430.648713906,-0.3564,0.1587,0.8208,10.728,4.79,-101.168,-4.5166,-4.5166,19.104,-8872,-2705,6355
430.748713968,-0.1216,0.1494,1.5405,10.695,5.867,-100.118,-0.3662,12.2681,37.8418,-8890,-2683,6134
430.848714085,-0.6201,0.4536,0.7246,11.992,6.443,-97.432,4.2114,-6.3477,50.415,-9185,-2840,6582
430.948714147,-1.1968,0.3228,1.0913,13.288,7.657,-95.004,-3.1128,7.5684,43.6401,-9535,-2971,7003
431.048714273,-1.082,0.3076,0.8887,14.87,8.487,-92.807,4.3335,2.0752,46.3257,-9746,-3193,7191
431.148714392,-0.7666,0.3325,1.2173,16.76,9.256,-90.89,7.2632,8.2397,53.0396,-9944,-3360,7212
431.24871453,-0.7285,0.1499,1.1123,18.831,9.503,-89.313,-5.3711,-6.6528,38.269,-10270,-3550,7603
431.348714649,-0.6147,0.2759,0.9004,18.946,9.948,-88.989,-9.4604,7.7515,32.8369,-10678,-3629,7451
431.448714786,-0.8208,0.2847,0.874,19.622,10.618,-87.676,2.9297,6.5308,46.2646,-10614,-3668,6995
431.548714795,-0.9551,0.2241,1.0801,21.011,10.893,-86.133,4.0283,7.3242,35.4614,-10449,-3809,6142
431.648714803,-0.7544,0.1279,1.0459,21.714,11.151,-85.144,-5.9814,-6.0425,32.4707,-10742,-4024,5570
431.748714885,-0.7036,0.0039,0.7808,21.951,11.085,-83.936,-2.7466,-0.2441,35.4004,-10791,-4097,4932
431.848715004,-0.7905,0.0898,0.9961,21.539,11.733,-82.425,-0.7935,5.4932,33.6914,-10997,-4124,4517
431.948715049,-0.6812,0.062,1.2222,22.209,11.893,-80.793,5.188,0.5493,34.1797,-11119,-4087,4777
432.048715176,-0.814,0.2598,0.8931,21.758,12.255,-79.261,-8.8501,1.6479,30.5176,-11865,-4078,5522
432.148715221,-0.5835,0.3052,0.98,21.951,12.766,-77.492,5.3101,-1.2817,33.0811,-11972,-3878,6119
432.24871523,-0.604,0.2544,1.1108,22.418,13.041,-75.992,-1.5259,5.0659,29.48,-12360,-3760,6842
432.348715276,-0.562,0.4717,0.8823,22.764,13.2,-74.57,-0.061,-1.0986,28.4424,-12991,-3677,7790
432.448715395,-0.5918,0.3462,1.0347,22.972,13.271,-73.169,-4.9438,1.0986,26.1841,-12840,-3606,7497
432.54871546,-0.4302,0.2197,1.2891,23.599,13.293,-71.636,2.1362,0.6104,26.8555,-13001,-3517,7590
432.648715487,-0.3911,0.3184,0.8726,24.071,12.87,-70.494,1.2817,1.709,24.7192,-13156,-3468,7555
432.748715532,-0.5791,0.4399,0.877,23.395,12.827,-69.412,-7.3853,5.188,23.1934,-13288,-3320,7669
432.848715597,-0.5581,0.1821,0.8457,24.142,12.838,-67.714,-0.6714,-0.1221,26.001,-13470,-3307,7642
432.948715679,-0.5928,0.3892,0.9146,23.89,13.101,-66.198,-5.0659,1.4038,24.0479,-13562,-3184,7668
433.048715787,-0.6006,0.1401,0.9902,24.582,13.184,-64.534,2.1362,0.7935,22.7661,-13547,-3132,7308
433.148715869,-0.4639,0.1221,1.1587,24.631,13.348,-62.941,4.5166,4.2725,24.8413,-13448,-3185,6483
433.248715914,-0.4985,-0.1128,0.9829,24.137,13.392,-61.21,-5.3101,1.8311,25.3906,-13386,-3234,5721
433.34871596,-0.6318,-0.2036,1.0679,23.005,13.793,-59.024,0.6104,2.9297,27.2217,-13103,-3129,4859
433.448716023,-0.5029,-0.2197,1.0527,21.841,13.997,-56.766,-1.8921,5.249,26.1841,-13131,-3108,4184
433.548716105,-0.5337,-0.334,0.9062,20.347,14.321,-54.487,-2.1973,2.3804,25.2686,-13076,-3025,3851
433.648716169,-0.7407,-0.3145,1.0356,18.885,14.529,-52.026,-1.77,1.2207,28.4424,-13099,-2856,3676
433.748716307,-0.6128,-0.3623,1.1255,17.831,14.733,-49.411,2.0142,1.2207,28.8086,-13301,-2777,3711
433.848716352,-0.6152,-0.1895,0.9585,16.793,14.969,-46.807,0.8545,0.7324,30.0293,-13416,-2652,3811
433.948716415,-0.7261,-0.2261,0.979,15.859,15.216,-43.885,-1.4648,1.3428,32.2266,-13556,-2440,3780
434.048716466,-0.7158,-0.1587,1.0557,15.342,15.469,-40.66,-0.3052,1.709,34.1187,-13626,-2305,3740
434.148716547,-0.5874,-0.0713,1.1372,14.81,15.842,-37.244,-1.8311,4.7607,35.2783,-13697,-2165,3701
434.248716664,-0.6904,-0.0537,0.9888,14.705,16.166,-33.547,1.8311,2.0752,39.6118,-13703,-1944,3678
434.34871667,-0.7539,-0.1074,1.0107,14.974,16.633,-29.52,1.0376,-0.061,41.4429,-13853,-1734,3694
434.448716677,-0.9624,-0.0098,0.9795,14.656,17.045,-25.302,-4.8218,4.9438,42.7856,-13933,-1508,3640
434.548716813,-0.856,-0.0068,0.8843,14.771,17.693,-20.594,-4.0894,5.0659,44.4336,-13969,-1211,3813
434.648716949,-0.6274,0.0391,0.9463,15.48,18.292,-15.754,1.709,-0.3052,45.2271,-13951,-875,4133
434.748717011,-1.0757,0.1499,1.0342,15.194,18.342,-11.673,-7.5684,-2.6855,41.0156,-14055,-499,4376
434.848717054,-1.3599,0.0103,0.8774,16.6,18.578,-6.564,7.2021,3.418,45.5933,-14137,-168,4705
434.948717172,-0.7295,0.1318,1.2051,17.65,18.962,-2.038,-1.4648,0.5493,39.5508,-14295,46,4921
435.048717294,-0.8027,-0.0522,0.8403,18.611,18.605,2.488,-0.8545,-2.5635,42.0532,-14258,268,5167
435.148717409,-0.8066,0.1548,0.9731,18.034,18.495,6.537,-10.7422,1.8311,39.3066,-14412,561,5153
435.248717449,-0.895,0.1567,0.9512,18.457,18.369,10.876,0.7324,-5.9204,37.7197,-14157,884,5363
435.348717582,-0.7227,0.2363,1.0537,19.27,18.32,14.903,3.0518,-1.3428,37.5977,-14273,1162,5621
435.448717623,-0.5024,0.2329,1.0566,20.072,18.16,18.715,-2.6245,-0.7324,32.3486,-14467,1428,6397
435.548717719,-0.4092,0.3765,1.0605,20.242,17.941,21.973,1.8921,2.0752,27.9541,-14568,1656,7002
435.648717778,-0.5703,0.4023,1.1294,20.891,17.573,24.681,3.0518,1.5869,21.8506,-14445,1802,7210
435.748717837,-0.4092,0.2612,0.8662,21.401,17.15,27.004,-0.4883,-0.7935,18.4326,-14458,1954,7169
435.848717841,-0.4819,0.3242,0.9565,21.44,16.787,29.125,-0.1221,1.4038,18.0054,-14436,2067,7272
435.948717955,-0.4644,0.2773,0.979,21.945,16.551,31.251,3.6621,0.7935,18.7378,-14284,2109,7271
436.048717982,-0.2969,0.2979,1.1855,21.945,16.139,33.201,-6.3477,-0.7324,17.4561,-14214,2222,7249
436.148718,-0.1328,0.2188,0.9136,21.357,15.573,34.805,-5.4321,-3.418,12.7563,-14167,2358,7378
436.248718074,-0.418,0.3052,1.0459,21.72,15.397,36.068,11.2305,-2.9297,8.606,-13884,2390,7213
436.348718166,-0.3369,0.2979,1.3091,22.088,14.788,37.2,-6.1646,0.7324,10.9863,-14226,2388,7501
436.448718184,-0.2856,0.1943,0.9209,22.198,14.282,38.441,10.376,-5.0049,8.7891,-13951,2406,7386
436.548718258,-0.2476,0.2656,0.7993,21.66,13.76,39.474,-14.7705,2.8687,8.8501,-14071,2462,7497
436.648718276,-0.4199,0.4536,0.9868,20.945,13.535,40.66,2.9907,-0.4883,10.7422,-13978,2613,7418
436.748718312,-0.3252,-0.1152,1.021,22.187,12.969,41.627,6.7749,-4.2725,7.2021,-13778,2400,6836
436.848718349,0.1216,0.0234,1.1948,20.165,12.618,42.407,-11.3525,3.7842,8.1177,-13673,2452,6067
436.94871846,-0.0176,-0.4429,0.9385,19.775,12.052,43.171,5.9204,-0.2441,8.0566,-13090,2360,5049
437.048718611,0.0767,-0.2397,1.0342,16.479,11.975,44.006,-15.9912,4.5776,9.6436,-13435,2505,4634
437.148718735,-0.3965,-0.4595,1.0454,15.408,11.717,45.346,12.146,0.9766,13.0615,-12881,2620,3618
437.248718767,-0.2622,-0.3916,1.1816,13.7,11.349,46.483,-3.1738,0.8545,11.4136,-12597,2633,3632
437.348718818,-0.5161,-0.3325,0.8965,11.646,11.387,47.84,-1.6479,3.54,11.4746,-13028,2515,4290
437.448718942,-0.6094,-0.3999,0.9277,10.349,11.475,49.224,2.7466,-0.3052,13.1836,-12670,2598,4076
437.548718992,-0.4438,-0.2104,1.0103,8.476,12.156,51.114,-7.8125,1.6479,15.9302,-12795,2722,3565
437.648719135,-0.459,-0.2031,0.9458,7.806,12.513,53.163,9.3384,-2.8076,19.9585,-13375,2980,3538
437.748719278,-0.709,-0.2773,1.0356,7.147,12.629,55.399,-7.1411,-5.3711,20.5688,-12643,3256,3222
437.848719421,-0.4497,-0.2593,1.1118,6.608,13.178,57.964,4.5166,2.0752,23.9868,-12016,2782,3743
437.948719489,-0.6431,-0.21,1.0142,6.218,13.508,60.667,-0.4883,3.479,26.062,-11763,2822,3689
438.048719581,-0.5488,-0.1465,0.8496,5.565,14.277,63.534,1.6479,-1.1597,25.8179,-12134,3459,3270
438.148719662,-0.5161,-0.2681,0.9028,5.103,14.843,66.308,-9.7656,-5.7983,22.9492,-12080,3222,3332
438.248719744,-1.167,-0.0713,0.9258,4.559,15.842,69.34,-3.479,2.4414,29.541,-11309,3109,3412
438.348719825,-0.207,-0.0859,1.1899,5.092,16.826,72.208,-0.3662,2.1362,25.2075,-11819,3228,3381
438.448719943,-0.8188,-0.1367,0.6445,5.07,17.369,75.081,-2.8687,-7.8125,26.7334,-11377,3534,3265
438.548720025,-0.6504,-0.2402,0.8804,4.697,18.435,78.041,-5.188,5.127,28.6865,-10545,3485,3951
438.648720032,-0.4897,-0.2275,0.9956,6.119,19.594,75.493,-4.9438,0.7935,27.832,-9846,3613,3994
438.748720039,-0.6836,0.0205,1.0552,6.823,21.099,72.554,-3.2349,6.7139,25.2075,-10322,3353,3691
438.848720084,-0.4805,-0.1582,0.9482,8.399,21.923,69.384,1.0376,0.0,25.3906,-10031,3360,3694
438.948720165,-0.6694,-0.0977,1.0469,9.278,22.56,66.05,-0.6714,-0.3052,25.6348,-9499,3452,3869
439.048720176,-0.6172,-0.0786,0.9238,10.349,22.967,62.913,-0.4883,0.6104,23.8647,-10047,3395,3394
439.14872025,-0.4414,-0.0444,1.1104,11.014,23.621,59.678,-1.5869,5.0049,23.8647,-9966,3470,3304
439.248720306,-0.5425,-0.0791,0.9043,11.64,24.241,56.382,-3.2959,-0.3052,23.1934,-9465,3248,3497
439.348720381,-0.498,-0.0425,0.998,12.239,24.78,53.207,1.8921,6.5308,22.8882,-9338,3296,3439
439.448720492,-0.5913,-0.0527,1.0137,13.09,25.241,50.076,1.5259,1.1597,23.0103,-9130,3184,3423
439.548720585,-0.5605,-0.1812,0.999,13.81,25.604,46.983,-4.8828,-0.1831,23.1323,-8961,3086,3140
439.648720622,-0.6348,-0.0991,0.9668,13.914,25.862,44.099,-1.0986,0.1221,24.9634,-8785,3033,3052
439.748720715,-0.6416,-0.0928,0.9277,14.42,26.125,41.594,-3.6621,-2.9297,26.7334,-8683,2966,3075
439.848720808,-0.3848,-0.1509,1.1992,15.309,26.516,39.567,-0.7935,-1.4648,29.541,-8700,2877,3182
439.948720901,-0.7739,-0.189,0.8696,16.018,26.702,37.711,-1.3428,-6.2256,30.2124,-8397,2869,3069
440.048720923,-0.8003,-0.0752,0.8262,16.837,26.988,36.255,1.6479,2.1973,32.7759,-8405,2794,3353
440.148720953,-0.6914,-0.0742,1.1118,17.71,26.746,34.86,-4.0894,-1.0986,33.2031,-8377,2675,3482
440.248721001,-0.7446,-0.0234,1.0781,18.468,26.62,33.728,-3.1128,-6.4087,34.6069,-8233,2590,3519
440.348721086,-0.561,0.0645,1.1699,19.885,26.472,32.701,7.8125,9.9487,34.668,-8141,2449,3456
440.448721152,-0.6841,0.0034,1.1851,21.912,27.213,31.849,1.1597,9.8267,30.4565,-7738,2277,3420
440.548721238,-0.9136,0.1572,1.0669,22.665,28.163,30.806,-1.4648,-1.1597,34.0576,-7406,2206,3437
440.648721378,-0.5186,-0.0229,0.9956,24.368,27.57,29.872,7.1411,3.8452,39.978,-8392,1675,4229
440.748721408,-0.835,0.2017,1.1577,25.269,27.136,28.548,-3.9062,-4.0283,35.0342,-8697,1560,4253
440.848721493,-0.7148,0.1523,0.7983,26.521,26.307,27.372,1.4648,-9.8877,39.1235,-7960,1572,4838
440.948721597,-0.7622,0.1201,0.894,26.999,25.862,26.516,-11.1694,2.6855,35.8276,-7331,2035,5393
441.048721647,-0.7769,0.0913,1.0903,28.12,25.45,26.51,2.3193,1.9531,42.1753,-6550,1992,5336
441.148721742,-0.8008,0.1694,1.0381,29.531,25.082,26.027,0.3662,2.3193,37.5366,-6735,1388,5216
441.248721855,-0.7979,0.1338,1.0181,31.124,24.747,24.73,0.3662,1.8921,37.4756,-7492,854,4673
441.348721876,-0.6558,0.083,0.9453,32.426,24.175,23.176,-2.6245,-5.9814,35.7056,-7774,1050,4510
441.448721915,-0.3062,0.1841,1.3135,32.811,23.725,20.989,-0.9155,4.0894,31.0059,-7574,481,4577
441.548721973,-0.3765,0.0967,0.8306,33.371,23.401,17.611,1.709,-2.0752,21.4233,-7199,46,4480
441.648722068,-0.5269,0.0815,0.9302,33.135,23.807,14.54,-2.0142,2.0752,24.353,-7274,-102,3889
441.7487222,-0.3838,-0.0781,1.1382,33.124,24.033,11.371,0.061,0.3662,21.8506,-6995,-370,3709
441.848722313,-0.2817,-0.019,0.9243,32.613,24.274,8.015,0.4883,-0.4272,19.3481,-7040,-475,3616
441.94872239,-0.3643,-0.0127,1.0254,31.97,24.549,4.532,-1.1597,-0.1221,18.3105,-7070,-550,3748
442.048722393,-0.4424,0.0542,1.0103,31.124,24.813,1.016,-0.4883,-0.3662,16.9678,-7209,-624,4133
442.148722534,-0.4839,0.0889,0.9746,30.657,24.873,-2.384,1.0986,-0.6714,20.5078,-7355,-737,4470
442.248722564,-0.4102,0.1616,1.1094,30.515,24.62,-5.674,-0.7935,1.6479,22.2778,-7449,-884,4640
442.348722612,-0.4004,0.1553,0.998,30.355,24.45,-8.608,4.7607,3.7842,23.3765,-7392,-1010,4522
442.448722642,-0.583,0.1226,0.9507,30.432,24.373,-11.497,-2.2583,0.061,22.9492,-7539,-1172,4720
442.548722708,-0.4478,0.1689,1.1348,30.613,24.5,-13.931,2.2583,6.0425,27.2217,-7605,-1331,4836
442.648722738,-0.6045,0.1919,1.0645,30.965,24.23,-16.474,1.0376,-0.7935,26.1841,-7689,-1478,5014
442.748722879,-0.6758,0.1763,0.8711,31.229,24.099,-18.699,-5.9814,5.6763,28.9917,-7839,-1685,5068
442.848722983,-0.4561,0.1753,1.1997,31.849,23.78,-20.742,4.6997,-0.6714,31.311,-7794,-1792,5039
442.948723068,-0.77,0.1416,0.8042,32.58,23.395,-22.83,-3.7231,-0.6104,29.1748,-7913,-1983,5087
443.04872308,-0.5518,0.2241,0.9131,32.58,23.247,-24.824,-5.3711,4.1504,32.2876,-8064,-2128,5084
443.148723173,-0.6865,0.1445,1.0347,32.673,23.038,-26.708,-9.6436,5.3711,30.8838,-8175,-2206,5157
443.248723192,-0.8232,0.1763,0.9199,33.832,22.852,-27.905,7.6904,3.9062,40.1001,-8195,-2321,5211
443.348723193,-0.9092,0.2715,1.187,35.255,22.571,-29.35,-2.8076,6.3477,35.5835,-8417,-2569,5353
443.448723323,-0.8027,0.1348,1.0635,36.694,22.165,-30.361,3.8452,3.6011,41.0156,-8605,-2791,5478
443.548723417,-0.7969,0.1636,0.9087,38.249,21.33,-31.652,5.4932,0.7324,39.856,-8779,-3036,5606
443.648723491,-0.9653,0.2344,0.9243,38.644,20.759,-33.25,-8.1177,-1.4038,37.7197,-9134,-3258,5591
443.748723511,-0.6963,0.0239,0.731,38.688,20.083,-34.904,-9.4604,-2.9907,31.25,-9276,-3412,5313
443.848723567,-0.9619,0.2236,0.9702,37.914,20.006,-37.101,-5.6763,-11.9019,24.231,-9216,-3401,4748
443.948723623,-0.0234,-0.1016,1.0972,37.98,19.929,-40.001,10.8643,-1.709,15.8081,-9123,-3569,4193
444.048723716,-0.1313,0.0542,0.9458,36.315,20.099,-43.605,-2.0752,-9.0332,-1.5869,-9145,-3688,3891
444.148723761,0.1553,-0.0605,0.9937,33.618,20.209,-48.186,0.2441,-6.4697,-6.7139,-9156,-3687,3836
444.24872388,0.5884,-0.1045,1.0439,30.679,20.116,-53.498,3.8452,-3.6621,-18.6157,-9018,-3606,3804
444.348723907,0.6445,-0.0732,0.8784,26.735,19.649,-59.392,-7.3242,1.5259,-22.583,-8903,-3627,3521
444.448723915,0.4961,-0.2358,0.8955,22.28,19.001,-65.468,-6.6528,-4.0894,-33.9966,-8683,-3470,3303
444.548724015,0.9136,-0.1128,0.9038,18.056,17.831,-72.372,6.2256,-0.8545,-41.1377,-8387,-3203,3157
444.648724116,0.9136,-0.1577,1.2212,14.969,16.188,-79.195,-0.6104,-4.3335,-40.8325,-8279,-3124,3202
444.74872416,0.4658,-0.1445,0.9277,11.959,14.293,-85.303,0.7935,-3.2349,-42.3584,-8236,-2972,3491
444.848724279,1.1382,-0.0234,1.4663,9.355,12.426,-91.049,3.7231,-8.3618,-40.7104,-8107,-2767,3572
444.948724343,0.6616,0.0049,1.0288,7.745,10.195,-95.944,0.3662,2.6855,-33.6914,-8037,-2543,3670
445.048724387,0.3062,0.0903,0.9023,6.257,8.344,-99.399,-1.6479,2.3804,-23.9258,-8055,-2285,4119
445.148724476,-0.0723,0.1143,0.6602,5.609,6.91,-101.695,-5.4321,-1.6479,-20.3857,-8091,-2112,4571
445.248724583,-0.2803,0.2495,1.0688,5.306,6.542,-102.404,-1.4648,10.1318,2.5635,-7729,-2000,4751
445.348724615,-0.2642,0.1719,1.0703,6.449,6.872,-102.14,9.8877,1.5259,11.4746,-7657,-2194,4804
445.448724741,-0.564,0.1665,1.1577,7.273,7.608,-100.92,-2.9297,7.5073,27.5269,-8178,-2510,5066
445.548724866,-0.6284,0.1074,0.8267,8.042,8.448,-98.965,0.0,-2.0142,30.5786,-8362,-2594,5229
445.648724973,-0.145,0.2007,1.5381,8.481,9.662,-97.191,-2.9907,7.1411,39.6118,-8455,-2636,5380
445.748725043,-0.9282,0.1792,0.7515,10.02,10.294,-94.334,3.1738,-3.7842,49.1333,-8759,-2804,5755
445.848725075,-1.2402,0.3169,0.938,11.464,11.58,-91.983,-2.5024,2.9907,42.8467,-8981,-3016,5822
445.94872509,-0.9009,0.2954,0.9409,13.052,12.623,-89.901,1.77,5.188,43.6401,-9292,-3200,5867
446.048725214,-0.5547,0.1729,1.3149,14.963,13.326,-87.874,7.3242,5.7983,47.0581,-9419,-3441,5776
446.148725271,-0.6968,0.0439,1.0859,16.968,13.612,-86.171,0.6714,-8.5449,40.0391,-9534,-3639,5723
446.248725383,-0.8579,0.1821,0.7974,17.012,13.892,-85.089,-12.2681,4.4556,38.9404,-9816,-3830,5290
446.348725477,-0.8481,0.1084,0.9492,17.281,14.623,-83.342,-5.9204,1.4038,41.9922,-9912,-3835,5034
446.448725479,-0.8198,0.1489,0.9766,18.743,15.079,-81.464,5.9814,-2.9907,41.5649,-10049,-3809,5253
446.54872548,-0.7007,0.1572,1.085,20.198,15.172,-80.14,-1.2207,-2.0752,37.4146,-10580,-3921,5648
446.648725518,-0.7363,0.2168,1.0464,20.792,14.886,-79.003,0.4883,-1.8311,38.5132,-11055,-4021,5814
446.748725612,-0.8926,0.1729,0.9282,21.275,14.755,-77.613,-6.1035,1.0376,34.8511,-11264,-4001,5943
446.848725632,-0.5376,0.2925,1.0073,21.929,15.057,-76.086,6.1646,2.9297,38.9404,-11612,-3999,5838
446.948725745,-0.8325,0.1333,1.0742,22.89,14.722,-74.636,-4.5776,-1.0986,34.6069,-11703,-4029,5983
447.048725819,-0.6899,0.2412,1.0054,22.637,15.062,-72.977,-5.0659,7.8125,33.2642,-11914,-3929,5890
447.148725917,-0.6284,0.2437,0.9248,23.275,15.057,-71.208,4.5776,-0.5493,35.1562,-12236,-3897,6168
447.248725979,-0.5649,0.2324,1.1416,23.785,15.128,-69.653,-4.1504,2.0752,28.9307,-12269,-3811,6102
447.348726134,-0.3555,0.2358,0.9092,23.873,14.963,-68.89,1.77,-2.0752,20.1416,-12632,-3756,6385
447.448726158,-0.3608,0.3618,0.9985,23.621,14.733,-68.45,-1.1597,-3.2959,18.0664,-12828,-3707,6684
447.548726294,-0.3813,0.2979,1.1406,23.763,14.513,-68.033,0.1221,-0.3052,19.4092,-12810,-3625,6737
447.648726337,-0.2002,0.2119,1.0835,24.104,14.03,-67.445,-1.2817,1.4038,21.3623,-12927,-3597,6775
447.748726418,-0.4136,0.4048,0.9663,23.313,13.804,-66.572,-2.6855,8.5449,22.583,-13160,-3493,6898
447.848726535,-0.5918,0.1528,0.8022,23.857,13.585,-65.358,-1.2817,-2.2583,21.6064,-13266,-3420,6993
447.948726578,-0.5205,0.3403,0.9751,23.494,13.722,-64.122,-4.2114,2.3804,23.2544,-13364,-3305,7060
448.048726693,-0.6221,0.2603,0.938,24.071,13.727,-62.562,0.4883,0.4883,22.7661,-13520,-3208,7156
448.148726759,-0.4722,0.2368,1.1401,24.384,13.738,-61.139,2.9297,3.479,24.353,-13677,-3157,7194
448.248726807,-0.5415,0.2012,1.0034,24.62,13.651,-59.595,-2.6855,4.8828,24.6582,-13629,-3132,6811
448.348726873,-0.6021,0.0239,1.1108,24.17,13.848,-57.557,-0.4272,9.3994,30.8838,-13452,-3071,6015
448.448726957,-0.8198,-0.0366,0.9653,23.983,13.931,-55.047,-0.6104,6.4697,30.5786,-13434,-3061,5293
448.548727023,-0.8525,-0.0972,0.8955,23.225,14.376,-52.245,-2.5024,0.2441,32.0435,-13222,-2982,4551
448.648727052,-0.8218,-0.2266,1.0469,22.159,14.639,-49.444,-4.3945,-1.9531,29.8462,-13211,-2838,3919
448.748727062,-0.6055,-0.3042,1.1484,21.22,14.854,-46.725,0.4272,-0.5493,27.9541,-13257,-2751,3713
448.84872722,-0.6372,-0.3452,1.0132,20.215,14.991,-44.16,2.5024,2.6855,29.48,-13286,-2628,3567
448.948727268,-0.6792,-0.2119,0.9897,18.995,15.084,-41.44,-0.6714,1.9531,30.2124,-13474,-2495,3233
449.048727313,-0.626,-0.271,0.9688,18.045,15.244,-38.578,-0.7324,1.8311,30.0293,-13424,-2373,3161
449.148862544,-0.4702,-0.271,1.1689,17.04,15.557,-35.662,-3.0518,0.9766,29.9072,-13458,-2196,3161
449.248862594,-0.6074,-0.2642,0.978,16.062,15.579,-32.607,4.3335,3.3569,33.3862,-13534,-1963,3113
449.348862627,-0.666,-0.2324,0.9663,15.502,15.875,-29.29,-2.2583,-0.5493,32.959,-13699,-1842,3201
449.44886277,-0.6899,-0.1333,1.0327,14.529,16.199,-25.911,-5.3101,2.5635,33.6914,-13665,-1629,3104
449.548862895,-0.752,-0.0205,0.8481,13.98,16.666,-22.302,-1.8311,3.3569,35.1562,-13668,-1369,3181
449.64886302,-0.6636,-0.0928,0.8291,14.189,17.183,-18.715,-1.709,-1.5869,34.4849,-13718,-1182,3349
449.748863089,-0.917,0.0767,1.1182,13.596,17.391,-15.249,-3.54,-0.061,37.5977,-13807,-904,3399
449.848863103,-0.5127,-0.1328,0.939,14.469,17.457,-11.327,5.9814,-4.9438,37.3535,-13803,-673,3490
449.948863172,-0.644,0.104,1.1138,14.854,17.908,-7.443,0.3052,5.6152,40.4053,-14092,-417,3977
450.048863257,-0.6572,-0.0522,1.0298,16.007,17.842,-3.285,2.6855,4.2725,39.856,-14122,-165,4408
450.148863329,-0.752,0.1294,0.9463,15.793,17.781,0.577,-10.5591,-1.77,37.9028,-14514,163,4796
450.248863456,-0.813,0.1133,0.9336,16.139,17.842,4.927,-2.6245,2.0752,43.396,-14292,388,5046
450.348863566,-0.9653,0.2031,0.9131,16.93,18.073,9.311,0.0,1.9531,41.0156,-14196,738,5220
450.448863675,-0.6372,0.2051,1.0479,18.012,18.182,13.563,2.4414,-2.5635,37.9639,-14288,1038,5586
450.548863728,-0.8413,0.2241,0.9067,18.484,17.985,17.216,-2.6245,-1.0376,34.6069,-14414,1238,5985
450.6488638,-0.5762,0.2119,1.0986,19.199,17.88,20.874,1.4038,4.3945,34.4849,-14297,1477,6270
450.748863872,-0.6875,0.3589,1.0732,19.957,17.721,24.351,1.77,-0.9766,31.0669,-14224,1714,6594
450.848863944,-0.5386,0.3125,0.9639,20.484,17.474,27.334,-0.1221,-5.4932,25.6348,-14227,1895,6791
450.948864053,-0.189,0.293,1.1685,20.726,17.287,29.619,0.1221,0.1831,17.7612,-14291,2041,6996
451.04886414,-0.2935,0.3921,1.0117,21.0,16.897,31.349,4.2725,2.5635,16.2354,-14166,2105,7135
451.148864233,-0.2363,0.2949,1.2822,21.182,16.419,33.08,-5.0659,7.019,15.2588,-14254,2189,7306
451.248864251,-0.2651,0.4326,1.0742,20.869,15.815,34.607,-0.061,5.6152,15.7471,-14182,2346,7436
451.348864381,-0.3032,0.3911,1.418,20.962,15.688,36.568,10.376,3.7231,16.3574,-14029,2486,7389
451.448864511,-0.2881,0.1274,1.2471,22.225,15.26,38.161,-2.6245,-5.127,11.7798,-14161,2502,7585
451.548864585,-0.2959,0.3408,1.001,22.083,14.76,39.353,10.2539,-1.8311,8.4839,-13884,2491,7412
451.64886464,-0.105,0.1982,0.8955,21.769,14.106,40.122,-11.1084,-0.1831,6.1646,-14266,2571,7677
451.748864696,-0.2305,0.4355,1.1411,20.929,13.815,40.979,4.7607,1.9531,7.1411,-13804,2643,7476
451.848864733,-0.1919,0.0815,1.1475,22.126,13.145,41.715,6.6528,-3.6621,5.249,-13845,2510,7189
451.948864752,-0.0835,0.1821,1.0522,20.858,12.475,42.347,-8.4229,4.5166,5.3101,-13665,2457,6395
452.048864896,-0.085,-0.2666,0.876,20.786,11.997,43.0,4.8828,-0.9766,4.8218,-13086,2376,5400
452.148864953,-0.0352,-0.1021,0.9927,18.309,11.777,43.693,-15.1367,5.5542,6.2256,-13248,2392,4780
452.248865047,-0.3545,-0.3169,1.1396,17.243,11.541,44.764,13.7939,2.2583,9.1553,-12590,2629,3710
452.348865159,-0.3062,-0.2979,1.2178,16.073,11.497,46.0,-4.0894,-0.6714,12.6343,-12904,2411,3373
452.448865179,-0.5625,-0.1631,0.8652,14.019,11.453,47.933,-3.418,8.606,18.9819,-12683,2256,3357
452.548865255,-0.5488,-0.3301,0.8213,12.464,12.211,50.131,-2.3804,4.9438,19.6533,-12340,2467,3239
452.64886533,-0.3555,-0.2964,1.0415,10.992,12.711,52.427,-3.6621,-0.9155,21.1182,-12136,2686,2993
452.748865406,-0.4805,-0.2695,1.228,9.772,12.958,54.662,9.5825,1.6479,22.0947,-12120,2717,2968
452.848865463,-0.5747,-0.3394,1.167,9.41,12.958,56.728,-4.9438,-5.4321,17.7612,-11680,2660,2863
452.948865575,-0.4766,-0.2939,1.0801,8.223,13.37,58.914,7.019,1.3428,19.7754,-11915,2572,3211
453.048865721,-0.5596,-0.146,1.0225,7.63,13.722,61.194,-0.1221,3.7231,22.0337,-11560,2778,2927
453.148865797,-0.6333,0.0181,1.04,6.74,14.524,63.776,5.7983,-0.061,24.1699,-11962,2832,3286
453.248865836,-0.439,-0.3403,1.0576,6.564,15.04,66.5,-13.4277,-6.4087,23.9868,-11645,2901,2905
453.348865968,-0.8672,0.0151,0.8428,5.79,16.013,69.56,4.2725,0.6104,30.9448,-11292,3178,3634
453.448866044,-0.4658,-0.0879,1.1689,6.509,16.765,72.631,-2.0752,2.9907,25.8789,-11402,3286,4132
453.548866047,-0.6147,-0.0786,0.9863,6.608,17.611,75.586,-0.061,-2.9907,26.4893,-10892,3182,3499
453.648866141,-0.5811,-0.146,0.8267,6.356,18.517,78.409,-6.5308,3.6621,26.3062,-12107,3479,3494
453.748866144,-0.4561,-0.1445,1.103,6.927,19.567,81.612,-2.5024,2.5024,27.6489,-12138,4047,3462
453.848866164,-0.6582,0.0439,0.9375,6.757,20.797,84.567,-2.8076,5.7373,24.7192,-10723,4309,3320
453.948866185,-0.6841,-0.1587,0.9761,7.91,21.434,86.451,0.7935,1.1597,28.2593,-10262,3391,3568
454.04886622,-0.7256,0.0469,1.0962,9.207,22.044,83.232,0.061,2.9907,29.7852,-9515,3304,3648
454.148866333,-0.7437,-0.0718,0.9512,10.931,22.505,80.327,-5.127,1.709,27.9541,-10037,3387,3248
454.248866447,-0.7446,-0.0815,0.9902,12.426,23.187,77.52,-1.8311,1.709,30.2734,-9703,3344,3276
454.348866449,-0.6543,-0.0259,1.0527,13.683,23.736,74.756,-2.1973,0.3662,29.7241,-9163,3221,3393
454.448866489,-0.8145,0.0239,1.0337,15.2,24.45,72.158,1.3428,2.3804,30.3955,-9222,3338,3181
454.548866602,-0.6846,-0.0713,0.9766,17.001,24.933,69.686,-0.4883,3.9673,29.2969,-8752,3081,3466
454.648866734,-0.6616,-0.043,0.9961,17.985,25.296,67.033,-5.6152,-2.7466,29.3579,-8737,3007,3481
454.748866811,-0.7798,-0.0791,0.8457,19.303,25.488,64.759,0.6104,-1.9531,33.9966,-8546,2913,3541
454.848866924,-0.8896,-0.0386,1.0137,20.72,25.724,62.908,-1.2207,3.3569,35.4004,-8583,2760,3552
454.948867001,-0.436,-0.1006,1.2817,22.275,25.741,61.238,0.0,0.9155,34.729,-8146,2765,3513
455.048867017,-1.0498,-0.1436,0.8311,23.708,25.79,59.683,-1.0986,-0.9766,36.0718,-8338,2575,3427
455.148867019,-0.9053,-0.0664,0.9019,24.401,25.411,57.711,-10.2539,-4.1504,33.6304,-7964,2551,3542
455.24886715,-0.772,-0.0498,1.0425,26.098,25.988,56.541,11.7798,4.5776,36.1938,-7709,2404,3490
455.348867282,-0.6938,-0.1387,1.0698,27.944,26.884,54.514,-3.7231,14.1602,23.8647,-7549,2494,3228
455.448867414,-0.8359,0.02,0.9873,29.059,27.263,52.597,9.7046,-4.9438,39.3677,-7185,2178,3845
455.548867527,-0.8047,-0.1328,0.9937,29.702,26.834,50.449,-14.0991,-7.6904,26.5503,-6776,2081,3945
455.648867603,-0.731,-0.0312,0.8564,30.179,26.543,48.598,9.0332,-2.8076,37.1094,-7173,1907,3505
455.748867679,-0.7197,-0.0454,0.8838,30.987,26.318,46.45,-10.9253,-1.709,31.189,-7934,1311,3157
455.848867718,-0.7158,0.0015,0.958,31.432,26.323,44.621,0.0,-0.1221,34.8511,-7362,1210,3435
455.948867757,-0.6655,-0.0225,0.9824,32.465,26.389,42.462,2.5024,3.2959,30.0903,-7071,1170,3479
456.048867883,-0.6763,-0.019,1.105,33.398,26.614,40.155,1.4038,0.8545,30.2124,-7055,942,3519
456.148867884,-0.5405,-0.0674,1.0171,34.041,26.559,37.672,-0.1831,-1.2207,31.311,-6994,753,3550
456.248867904,-0.6055,-0.0366,1.1353,34.25,26.411,35.063,-0.7324,1.709,29.9072,-7017,592,3543
456.348867924,-0.4663,-0.0317,0.9194,34.678,26.51,32.393,0.8545,2.4414,27.0996,-6894,442,3466
456.448868017,-0.5771,0.0386,0.9849,34.497,26.917,29.476,-3.6011,-0.6104,25.5737,-6964,156,3519
456.548868055,-0.4897,-0.0698,0.9448,34.673,27.197,26.384,2.1973,2.5635,24.6582,-6885,7,3559
456.648868205,-0.3535,0.0596,1.0347,34.233,27.438,22.945,3.6621,3.9062,22.9492,-6877,-105,3550
456.748868224,-0.3823,0.0127,1.0112,33.997,27.647,19.556,-2.6245,-2.0142,23.0103,-6917,-253,3615
456.848868281,-0.4946,-0.0332,0.9131,33.596,27.927,16.293,-1.8311,-1.4038,22.8271,-6890,-345,3620
456.948868319,-0.4204,0.0962,1.0674,33.03,28.081,12.914,2.7466,1.6479,23.4985,-6856,-496,3602
457.048868388,-0.541,-0.0811,0.9058,33.096,28.043,9.805,-1.5869,-3.418,24.8413,-6832,-701,3629
457.148868443,-0.5356,0.0361,1.1201,32.706,28.098,6.927,0.5493,5.127,27.2217,-6959,-878,3694
457.248868554,-0.5083,0.0303,0.9404,32.789,28.18,4.373,-2.6245,1.1597,27.71,-7017,-1051,3781
457.348868702,-0.5786,0.0059,1.0552,33.223,28.174,1.978,-0.1831,2.0752,29.8462,-7119,-1170,4146
457.448868849,-0.6338,0.1968,1.0264,33.492,27.993,-0.538,0.7935,0.9155,30.6396,-7337,-1327,4699
457.548868923,-0.5728,0.1753,0.9048,34.113,27.658,-3.203,-1.3428,2.2583,28.6865,-7534,-1477,5073
457.648869034,-0.5259,0.1772,1.1602,34.574,27.345,-5.691,-2.6855,5.6763,32.4707,-7675,-1625,5209
457.748869089,-0.6016,0.2061,1.165,35.425,26.691,-8.201,5.3711,-2.3804,33.5693,-7700,-1796,5217
457.848869107,-0.5723,0.0967,0.8701,36.266,26.098,-10.558,-6.0425,1.0376,32.7148,-7888,-2044,5261
457.948869162,-0.5981,0.2515,0.9292,36.387,25.686,-12.854,-4.0894,2.5635,33.9966,-7999,-2161,5245
458.048869285,-0.519,0.1382,0.9531,36.562,25.252,-15.359,-8.1177,3.54,29.7241,-8206,-2289,5323
458.148869338,-0.5913,0.2202,0.9209,37.277,25.043,-17.562,8.7891,3.3569,32.4707,-8220,-2381,5351
458.248869465,-0.6582,0.1665,1.1021,38.485,24.631,-19.753,-0.1221,5.8594,33.3862,-8331,-2570,5431
458.348869611,-1.0283,0.2349,1.0703,39.529,23.989,-21.324,5.7373,2.9297,41.3208,-8552,-2794,5467
458.448869646,-0.8198,0.2368,1.0571,40.908,23.242,-22.89,4.6997,-2.3804,38.0859,-8679,-3033,5539
458.548869717,-0.6045,0.1011,1.0425,41.957,22.462,-24.802,-3.479,0.3052,36.377,-9010,-3262,5661
458.64886977,-0.4849,0.1787,0.9229,41.611,21.874,-27.037,-5.4932,-0.1831,32.7148,-9207,-3317,5618
458.748869916,-0.4775,0.23,0.9541,41.023,21.577,-29.702,-11.4136,2.0142,25.2075,-9527,-3423,5518
458.848870025,0.2778,0.0957,1.2686,40.496,21.237,-32.767,7.9956,-4.6997,17.7612,-9312,-3442,4980
458.948870096,-0.5,-0.0674,0.707,39.26,21.072,-37.233,2.7466,-8.606,-0.061,-9232,-3606,4432
459.048870217,0.3359,-0.0796,1.0601,36.326,21.407,-42.27,-3.479,-3.1738,-10.5591,-9171,-3696,3994
459.14887036,0.4429,-0.1104,0.9292,32.932,21.473,-48.032,5.3101,2.4414,-15.9302,-8964,-3605,3841
459.248870447,0.5435,-0.1045,0.9751,29.213,21.11,-54.322,-1.2207,-5.9814,-26.123,-8850,-3528,3804
459.348870517,0.5244,-0.0708,0.748,24.659,20.698,-60.947,-7.9956,-0.5493,-31.0059,-8804,-3464,3798
459.448870549,0.8335,-0.0791,1.0635,20.132,19.731,-67.67,-3.8452,-3.2349,-35.3394,-8550,-3233,3727
459.548870636,0.6646,-0.0884,1.041,16.743,18.281,-74.218,5.6152,-5.0049,-37.1094,-8268,-3027,3661
459.648870742,0.4014,-0.0708,0.7734,13.964,16.518,-80.195,-2.6855,-1.1597,-34.4849,-8194,-2986,3709
459.748870848,0.644,-0.0947,0.8721,11.316,14.502,-85.77,-4.4556,0.7324,-36.0718,-8083,-2825,3744
459.848870973,0.6216,0.0342,0.8213,9.212,12.437,-91.011,-0.3662,-7.4463,-39.856,-8033,-2616,4062
459.948871042,0.4375,0.019,0.8975,7.905,10.355,-95.361,-0.061,1.77,-29.9072,-8114,-2397,4547
460.048871123,0.396,0.1177,0.8564,6.652,8.427,-98.844,-1.5869,4.7607,-26.9775,-8008,-2135,4781
460.148871263,0.3091,0.2139,1.1162,6.01,6.993,-101.157,-5.4932,3.6011,-10.9253,-7906,-1950,4923
460.248871366,-0.1997,0.2749,1.1646,6.021,6.757,-101.975,6.4087,9.5825,2.0142,-7538,-1890,4976
460.348871376,-0.5161,0.1338,1.019,7.295,6.828,-101.783,5.188,2.8687,13.7329,-7671,-2200,4887
460.448871461,-0.5151,0.188,1.1738,7.723,7.833,-100.245,-0.1221,7.3242,30.2124,-7950,-2415,4843
460.548871601,-0.8677,-0.0791,0.6626,7.921,8.19,-98.536,-12.8174,-1.4648,30.2124,-7951,-2527,4449
460.648871611,-1.0464,0.0645,0.8892,8.405,9.888,-95.696,2.3193,1.3428,48.3398,-7898,-2605,4137
460.748871677,-0.8237,-0.0723,1.0869,9.789,10.937,-92.697,-4.8218,6.4087,45.4712,-8445,-2893,4563
460.84887178,-0.8076,0.0674,0.8906,10.854,12.261,-90.258,1.5869,-2.9297,45.105,-8618,-2998,4975
460.948871884,-0.627,0.1934,1.1304,12.14,13.184,-88.286,2.5024,-0.8545,42.8467,-8891,-3178,5143
461.048871905,-0.8784,0.0684,0.9819,14.095,13.782,-86.27,5.4932,2.0752,41.3208,-9164,-3422,5273
461.148871949,-0.7607,0.1714,1.0386,15.32,14.095,-84.738,-4.2725,4.8218,39.0015,-9503,-3601,5446
461.248872067,-0.6011,0.1279,0.9419,15.584,14.755,-83.381,-13.3667,4.9438,37.6587,-9693,-3664,5401
461.348872111,-0.5859,0.1401,0.9316,16.128,15.227,-81.887,0.0,0.1221,41.5649,-9907,-3684,5372
461.448872211,-0.8574,0.1631,1.0815,17.913,15.414,-80.469,8.0566,1.6479,40.1001,-9972,-3714,5367
461.54887231,-0.7158,0.1675,1.0688,19.215,15.518,-79.239,-4.0283,-0.2441,37.7808,-10367,-3905,5453
461.648872354,-0.7046,0.2212,1.0601,19.825,15.414,-77.855,-0.3052,2.8076,40.8325,-10701,-3949,5478
461.74887238,-0.6826,0.2314,0.9453,20.358,15.15,-76.393,-7.1411,-3.3569,35.5225,-10982,-3957,5521
461.848872479,-0.5596,0.2319,1.0703,21.0,15.452,-74.751,6.1035,1.2817,40.1611,-11108,-3899,5486
461.948872579,-0.4839,0.0259,1.0356,22.181,15.051,-73.207,2.1973,0.4883,34.1187,-11609,-3982,5659
462.048872689,-0.8599,0.2197,0.7563,21.929,15.266,-71.537,-9.7656,4.3945,34.668,-11687,-3924,5672
462.148872729,-0.4819,0.1689,0.9326,22.341,15.485,-69.873,0.7935,4.4556,31.9214,-11882,-3790,5784
462.24887275,-0.5752,0.1558,1.1851,22.906,15.634,-68.258,-0.7324,3.8452,31.0059,-12131,-3783,5836
462.348872883,-0.4575,0.1919,0.9565,23.154,15.491,-66.962,0.061,2.8687,26.4893,-12187,-3719,5821
462.44887296,-0.5566,0.25,0.9585,23.027,15.342,-65.748,-2.9297,2.8076,27.6489,-12488,-3670,5919
462.548873037,-0.5708,0.1714,0.9375,23.297,15.051,-64.528,-2.0752,0.0,25.6348,-12555,-3579,5900
462.648873095,-0.4575,0.229,0.9922,23.533,14.645,-63.474,8.4229,-5.249,21.9116,-12644,-3533,5882
462.748873135,-0.2939,0.1172,0.9878,23.055,14.145,-62.996,-11.4746,0.9766,17.0898,-13031,-3516,6069
462.848873212,-0.1992,0.2593,0.9971,22.44,13.958,-62.798,3.8452,0.2441,13.3057,-12958,-3375,6030
462.948873234,-0.2656,0.1968,1.0557,22.236,13.568,-62.551,-4.8828,2.8687,14.5264,-13014,-3322,6117
463.048873284,-0.3003,0.2983,1.0259,21.758,13.458,-61.913,2.7466,1.1597,16.6626,-13130,-3275,6059
463.14887332,-0.3755,0.2427,0.9805,21.901,13.293,-60.996,1.77,4.2725,19.7754,-13171,-3230,6021
463.248873355,-0.3149,0.1948,1.0723,22.039,13.134,-59.897,1.4038,2.6245,20.5688,-13249,-3191,6036
463.348873391,-0.5117,0.1621,0.9893,22.006,13.013,-58.64,-3.7842,4.2725,22.3389,-13327,-3144,5971
463.448873445,-0.561,0.1313,1.0288,21.682,13.2,-56.739,1.2207,4.4556,27.2217,-13150,-3071,5377
463.548873591,-0.6226,0.0298,1.0312,21.676,13.25,-54.679,-0.9155,3.2959,27.3438,-13138,-3036,4719
463.648873627,-0.7646,-0.0947,1.0039,21.116,13.672,-52.284,-3.7231,0.5493,27.71,-13039,-2987,4077
463.748873718,-0.5054,-0.2344,1.0586,20.16,13.936,-49.768,-3.2349,2.7466,29.1748,-13027,-2833,3814
463.848873791,-0.751,-0.27,0.9619,19.319,14.106,-47.192,0.6104,-0.4883,29.9072,-13059,-2703,3633
463.948873863,-0.5864,-0.2109,1.0479,18.397,14.277,-44.714,0.7324,-0.6714,27.8931,-13083,-2587,3328
464.048873927,-0.5708,-0.1064,0.9897,17.474,14.431,-42.089,0.7935,0.4883,29.2969,-13263,-2480,3334
464.148873976,-0.6733,-0.1514,0.8853,16.793,14.667,-39.304,-0.4883,-0.3052,30.2734,-13305,-2331,3247
464.248874044,-0.7397,-0.2114,0.979,16.265,14.815,-36.442,-2.0752,1.2207,30.3955,-13353,-2183,3240
464.348874056,-0.812,-0.1465,1.0283,15.551,15.04,-33.53,0.061,-1.709,31.8604,-13370,-1977,3195
464.448874142,-0.5278,-0.0591,1.1284,15.359,15.364,-30.278,3.1738,6.4697,34.2407,-13522,-1824,3299
464.54887421,-0.6455,-0.0591,0.9692,14.947,15.634,-26.933,-5.9204,0.5493,34.8511,-13753,-1619,3597
464.648874333,-0.8237,-0.0376,0.7754,14.568,16.1,-23.203,-3.9062,2.0142,38.3301,-13679,-1363,3592
464.748874475,-0.6411,-0.0063,1.1211,14.821,16.804,-19.292,3.479,4.2114,37.6587,-13725,-1072,3809
464.848874543,-0.5361,-0.0596,1.2314,14.7,17.045,-15.716,-8.1177,-0.1831,34.5459,-13869,-785,4219
464.948874555,-0.9629,0.1323,0.8184,15.315,17.254,-11.58,7.5684,-0.7324,42.4194,-13918,-497,4344
465.048874576,-0.5405,0.125,1.1777,16.304,17.26,-7.701,0.8545,12.085,36.6821,-14224,-223,4908
465.148874657,-0.6421,0.1431,0.999,17.342,17.518,-3.499,8.728,-1.77,38.4521,-14042,-33,5022
465.248874775,-1.0049,0.0312,0.8872,17.512,17.238,0.214,-14.2822,-0.9155,36.499,-14430,181,5322
465.348874912,-0.9385,0.1738,0.897,17.32,17.227,4.345,-1.77,1.9531,42.7856,-14159,544,5316
465.448874974,-0.9619,0.2729,0.939,18.237,17.474,8.8,2.9297,1.4038,40.8936,-14195,871,5707
465.54887511,-0.6836,0.252,0.9517,19.133,17.639,12.98,1.1597,-3.479,36.5601,-14351,1100,6083
465.648875228,-0.6836,0.3447,0.8066,19.534,17.364,16.375,-3.2349,-1.3428,30.2124,-14362,1325,6382
465.748875365,-0.4595,0.2197,1.0688,20.072,17.265,19.528,0.1221,0.7324,28.5034,-14213,1536,6562
465.848875427,-0.5298,0.2778,1.1094,20.638,17.078,22.462,2.5024,0.3052,25.2075,-14245,1722,6871
465.948875563,-0.417,0.2495,1.022,20.945,16.815,25.131,-0.4272,-2.5024,22.2168,-14297,1870,7088
466.048875617,-0.3677,0.3149,1.103,21.143,16.639,27.499,-1.4038,-1.709,20.5688,-14238,2022,7283
466.148875747,-0.3633,0.3169,1.0342,21.627,16.485,29.702,4.4556,0.7935,21.6064,-14110,2135,7379
466.248875748,-0.27,0.2896,1.2729,21.665,16.386,31.91,-4.2114,12.8174,19.3481,-14243,2259,7575
466.348875861,-0.2441,-0.0024,0.8511,21.473,16.024,34.146,-2.2583,11.2915,23.4375,-14200,2443,7666
466.448875917,0.0073,0.4546,1.1323,22.126,15.782,36.958,11.3525,2.8076,28.6255,-13924,2585,7638
466.548875918,-0.3779,0.2456,1.4126,22.731,15.507,38.557,-2.4414,-4.0894,10.3149,-14190,2693,7834
466.648876012,0.062,0.0996,0.9316,22.874,14.865,39.413,7.1411,-6.2256,6.2866,-13911,2651,7738
466.748876013,-0.2319,0.3711,0.7026,21.511,14.387,40.1,-15.0146,1.77,4.7607,-14112,2728,7645
466.848876051,-0.2563,0.2163,1.271,21.583,14.139,41.243,16.0522,0.3052,9.7046,-13823,2689,6798
466.948876182,-0.1807,-0.1274,1.2021,21.797,13.535,42.182,-9.2163,-2.3193,8.3008,-13428,2498,5953
467.048876229,-0.2607,0.0283,1.0112,20.078,13.156,43.286,3.1128,0.4272,10.7422,-13489,2548,5377
467.148876242,-0.3091,-0.4268,1.0845,19.232,12.755,44.462,-10.6201,-1.0986,9.5215,-12624,2382,4057
467.248876274,-0.3159,-0.1763,1.0454,16.359,13.041,45.983,-3.1738,-0.2441,14.2212,-13172,2739,4418
467.348876306,-0.1802,-0.3027,1.0845,15.776,13.107,47.582,8.4229,1.8921,11.0474,-12829,2840,3661
467.448876431,-0.0903,-0.2607,0.8999,14.359,12.838,48.867,-3.6011,1.709,13.855,-12550,2475,3150
467.548876481,-0.0371,-0.25,0.9053,12.409,12.722,50.235,-2.5635,11.1694,9.0332,-12835,2404,3571
467.64887655,-0.1406,-0.1689,0.9688,11.25,12.997,51.345,-0.7935,6.5918,8.4839,-12253,2714,3165
467.748876638,-0.4731,-0.1108,1.021,9.965,12.898,52.679,-3.7842,-0.1831,14.0991,-12183,2812,3279
467.848876744,-0.2622,-0.0938,1.2119,9.591,13.035,54.542,15.5029,5.6763,19.104,-12372,2853,3626
467.948876813,-0.5088,-0.23,1.2017,9.146,13.079,56.585,-7.2632,2.0142,21.4844,-11797,2739,3421
468.048876854,-0.564,-0.2432,0.9961,8.553,13.502,59.227,6.2256,2.1362,25.0854,-12031,2754,3809
468.14887699,-0.3682,-0.2236,0.9946,7.8,14.194,61.765,-4.8218,5.7373,21.8506,-11632,2959,3454
468.248877053,-0.5156,-0.2139,0.8843,7.416,14.744,64.286,4.3335,3.2349,21.9727,-11691,3016,3665
468.348877078,-0.8853,0.1787,0.958,6.152,14.903,66.802,-10.8032,12.3901,28.3813,-11487,3106,3513
468.448877122,-0.4004,-0.1445,1.2056,6.4,16.1,70.016,9.0942,3.6011,30.2124,-11339,3151,3498
468.54887724,-0.7651,-0.1016,1.0703,6.487,17.166,73.202,0.4272,7.019,30.3345,-11037,3224,3482
468.648877247,-0.8291,-0.2192,0.6841,6.361,17.902,76.432,-10.376,5.127,26.8555,-10899,3264,3473
468.748877365,-0.6157,0.0786,1.02,5.9,19.182,79.623,3.2959,3.9062,28.5034,-10670,3322,3493
468.848877428,-0.8643,-0.1172,0.7837,6.24,19.775,82.744,-8.9111,9.5215,25.9399,-10455,3295,3536
468.948877527,-0.5425,-0.2056,1.0303,6.202,21.127,85.188,2.5635,2.8687,27.3438,-10211,3358,3495
469.048877543,-0.6323,-0.1792,1.0664,7.734,21.962,81.887,-0.4272,2.9907,27.0996,-9896,3381,3439
469.148877617,-0.6338,-0.0215,1.0278,9.19,22.577,78.75,2.9907,1.5869,28.1372,-9856,3343,3475
469.248877617,-0.623,-0.0845,1.0298,10.41,23.148,75.591,-3.6011,-0.6714,26.9775,-9651,3326,3534
469.348877728,-0.6294,-0.2056,1.0713,11.618,23.917,72.62,-4.9438,0.7324,26.6113,-9501,3247,3496
469.448877839,-0.6104,-0.0806,1.0239,12.546,24.505,69.642,3.418,4.0283,28.5645,-9337,3273,3511
469.548877895,-0.6919,-0.0918,0.9932,13.678,25.323,66.802,0.4272,3.418,27.71,-9014,3307,3433
469.648877987,-0.6333,-0.2183,1.1182,14.974,26.18,64.105,-0.1831,3.54,27.0386,-8830,3209,3435
469.748878117,-0.6978,-0.1616,1.0117,15.903,26.779,61.518,-2.3804,-0.4883,28.8696,-8721,3116,3485
469.848878228,-0.6377,-0.1416,0.8672,16.804,27.191,59.189,-2.5635,-3.9673,30.2124,-8472,3068,3499
469.948878302,-0.7598,-0.1372,1.0195,17.606,27.405,56.931,0.1221,3.3569,31.9214,-8439,2946,3551
470.04887844,-0.3057,-0.0776,1.2637,18.913,27.581,55.031,2.8076,7.8125,30.4565,-8278,2855,3541
470.148878544,-0.7085,-0.0386,0.9272,19.737,27.911,53.086,-0.4883,-0.2441,33.9355,-8127,2765,3526
470.248878648,-0.897,-0.0488,0.7803,20.599,27.686,51.202,-2.9297,-4.3945,33.6304,-8007,2645,3505
470.348878678,-0.8052,-0.1284,0.7925,21.407,27.62,49.719,-5.127,-2.8687,34.9121,-7927,2526,3516
470.4488788,-0.9399,0.0288,0.917,22.747,27.422,48.362,7.1411,8.1787,37.4146,-7849,2414,3466
470.54887896,-0.73,-0.1318,0.9956,24.988,28.169,47.043,3.9062,11.7798,28.9917,-7440,2256,3430
470.648879101,-0.7275,0.1064,1.2363,25.692,29.136,45.165,0.2441,-2.2583,31.0059,-7299,2092,3722
470.748879149,-0.8052,-0.0498,0.8159,27.328,28.471,43.121,5.188,-1.5869,35.9497,-7875,1705,4195
470.84887916,-0.6719,0.2495,1.0972,27.57,28.015,40.534,-1.3428,-2.2583,29.6631,-7707,1725,4281
470.948879209,-0.4824,0.0859,0.9121,28.647,27.328,38.106,-2.6855,-5.7373,30.3345,-8104,1509,4378
471.048879209,-0.623,0.1733,1.0908,28.79,27.125,35.684,-7.8735,2.3804,34.5459,-8038,1250,4542
471.148879213,-0.8926,0.1821,0.8892,30.059,26.526,33.734,2.0142,1.8921,36.438,-7623,1212,4747
471.248879291,-0.606,0.1782,1.1323,31.701,26.356,31.8,2.3804,2.3193,33.02,-7464,1076,4996
471.348879424,-0.6353,0.1963,1.1191,32.975,25.922,29.399,-0.3052,0.3052,32.959,-7544,837,5144
471.448879446,-0.7358,0.1445,0.7915,33.794,25.12,26.526,-3.7231,-6.2866,30.7007,-7668,654,5266
471.54887958,-0.5093,0.2007,1.0605,34.492,24.769,23.632,2.8687,-3.418,27.9541,-7542,542,5274
471.648879694,-0.2642,0.0908,0.9429,34.964,24.631,19.803,-4.6387,3.6621,19.5923,-7697,283,5323
471.748879735,-0.4922,0.2681,1.0337,34.838,24.703,16.139,2.8076,4.3945,23.5596,-7483,154,5402
471.848879757,-0.7642,0.2451,0.9893,35.156,24.554,12.788,-3.479,0.0,26.3672,-7551,18,5485
471.948879798,-0.6299,0.2476,0.9863,35.744,24.313,9.706,-1.0376,-0.3052,27.4658,-7688,-156,5585
472.048879884,-0.5562,0.2202,0.9639,36.227,24.055,6.718,-3.6621,2.8687,28.3203,-7504,-266,5604
472.148879916,-0.6396,0.2114,1.0151,36.854,23.758,3.724,2.1362,-1.3428,29.4189,-7461,-442,5477
472.248880023,-0.8262,0.1538,0.9736,37.491,23.368,0.829,-3.6011,0.4883,29.7852,-7416,-771,4974
472.34888013,-0.4282,0.0376,1.2017,38.09,23.264,-1.412,3.6621,7.6294,31.4941,-7252,-999,4388
472.448880274,-0.6899,-0.0107,0.8657,38.249,23.324,-3.994,-3.1128,-0.6104,25.2686,-7146,-1252,3903
472.548880399,-0.5513,-0.0234,1.0586,38.243,23.791,-6.339,3.9673,3.9673,26.6724,-7117,-1404,3775
472.648880525,-0.5454,-0.043,0.9507,38.123,24.082,-8.937,-1.709,1.6479,25.1465,-7195,-1577,3755
472.748880613,-0.8062,-0.0093,1.0244,37.634,24.368,-11.14,-2.7466,0.061,28.6865,-7247,-1730,3768
472.848880738,-0.4097,-0.1021,1.0034,38.04,24.368,-13.271,4.0894,2.0142,29.7241,-7262,-1884,3771
472.948880882,-0.7915,0.0669,0.9189,37.332,24.521,-15.59,-11.0474,0.3662,27.9541,-7462,-2068,3784
473.048880904,-0.77,-0.0649,0.9058,36.81,24.67,-17.419,-9.5825,5.7373,31.311,-7536,-2148,3786
473.148881003,-0.7524,0.001,1.0171,37.029,25.005,-18.171,3.2349,4.0894,46.3257,-7515,-2209,3784
473.248881101,-1.1289,-0.0522,0.915,38.903,24.456,-18.726,2.3193,1.8311,41.1377,-7814,-2469,4144
473.348881107,-0.9756,0.1089,1.1465,40.232,23.989,-19.792,7.4463,4.6997,46.0815,-8224,-2699,4705
473.448881187,-0.7739,0.1772,1.1416,41.984,23.297,-20.792,5.127,-5.5542,41.3818,-8464,-2903,5221
473.548881212,-0.751,0.0786,0.9478,43.187,22.467,-22.654,-3.1738,-0.9766,37.7197,-8850,-3141,5555
473.648881218,-0.6011,0.1763,0.9297,43.149,21.868,-24.697,-5.5542,-1.1597,35.6445,-9156,-3254,5641
473.748881261,-0.3608,0.1948,0.833,42.902,21.429,-27.18,-9.9487,1.1597,25.9399,-9501,-3290,5811
473.848881322,0.0142,0.2422,1.0278,42.369,21.198,-30.547,6.897,-3.479,13.855,-9454,-3334,5532
473.948881365,-0.1519,0.0229,1.0571,41.336,21.094,-35.167,2.4414,1.8921,2.1973,-9354,-3528,4998
474.048881508,0.2905,-0.02,0.9551,38.6,21.555,-39.935,-0.7935,-4.0894,-6.1035,-9217,-3595,4382
474.148881617,0.3799,-0.0479,1.0747,35.645,21.671,-45.148,3.9062,-0.4272,-10.1929,-8975,-3604,3930
474.248881651,0.7476,-0.1968,1.126,32.234,21.407,-50.933,-4.7607,-10.9253,-19.2261,-8948,-3585,3863
474.348881778,0.7393,-0.2241,0.8989,27.334,21.099,-57.777,-6.7749,-4.0283,-36.1938,-8800,-3443,3753
474.448881868,0.835,-0.0806,0.8037,22.203,20.297,-65.286,-1.2207,-0.2441,-43.8843,-8508,-3205,3611
474.548881939,0.7393,-0.042,0.9663,18.347,18.962,-72.922,6.1646,1.6479,-43.8232,-8265,-3004,3590
474.648882029,0.8564,-0.1577,1.397,14.903,17.249,-79.579,-0.3662,-4.6387,-40.5273,-8160,-2908,3660
474.748882175,0.8369,-0.0532,0.9834,11.728,15.403,-85.627,-3.9062,4.1504,-41.1987,-8013,-2741,3677
474.848882228,0.5811,-0.0127,0.8652,9.602,12.997,-91.335,2.1362,-3.2349,-37.5977,-7855,-2436,3921
474.948882336,0.3423,0.2275,1.0957,8.02,11.151,-95.208,-4.9438,-0.7324,-24.353,-8133,-2301,4526
475.048882341,0.2231,0.2793,1.0459,7.081,9.728,-97.493,-3.1128,2.0142,-9.9487,-7976,-1988,4947
475.148882366,-0.332,0.1987,0.8818,6.795,8.855,-98.421,-4.8828,0.5493,1.0986,-7858,-1901,5408
475.248882447,-0.1313,0.3027,1.1294,7.866,9.13,-98.58,11.9629,2.2583,8.606,-7752,-2092,5531
475.348882528,-0.5166,0.2866,1.1313,8.817,9.174,-98.344,-0.9766,9.3994,18.3716,-8260,-2280,6018
475.448882609,-0.4463,0.1514,0.9243,9.723,9.536,-97.207,-1.1597,-6.6528,25.7568,-8533,-2362,6435
475.548882727,-0.4668,0.083,1.0229,10.272,10.58,-95.96,-4.9438,5.0049,38.5132,-8598,-2355,6606
475.648882827,-0.9438,0.3374,0.9409,12.316,10.986,-93.477,6.1646,5.127,51.1475,-9000,-2604,6886
475.748882871,-0.4414,0.2798,1.2661,13.694,12.228,-91.555,-2.5635,7.8735,45.4102,-9021,-2745,6796
475.848883026,-0.8765,0.1777,1.2124,15.474,12.849,-89.885,2.6245,1.709,44.7998,-9167,-3072,6281
475.94888307,-1.0303,0.0747,1.0137,17.479,13.519,-88.226,6.958,2.9297,42.4194,-9103,-3352,5608
476.048883121,-0.7759,0.0918,0.9736,18.38,13.892,-87.067,-9.3384,3.3569,36.499,-9253,-3623,5057
476.148883211,-0.8354,-0.0171,0.8203,18.105,14.645,-85.501,-14.7095,-1.1597,39.5508,-9249,-3688,4440
476.248883228,-1.0078,-0.0073,0.9595,18.528,15.189,-83.513,5.249,2.5635,46.3867,-9262,-3713,3964
476.348883244,-0.9258,-0.0522,1.0229,20.226,15.82,-81.326,2.8076,0.7324,41.3818,-9573,-3881,4101
476.448883279,-0.9419,0.0864,0.9658,20.781,15.93,-79.799,-2.5024,-2.0142,41.2598,-10067,-3972,4603
476.548883388,-0.6807,0.0981,1.0498,21.456,16.04,-77.997,-1.77,-7.3853,40.0391,-10470,-3969,5133
476.648883534,-0.7549,0.1875,0.7729,21.522,16.024,-76.613,-3.6011,0.7324,36.1938,-11002,-3892,5738
476.748883568,-0.3413,0.0386,1.0566,22.89,15.87,-74.971,4.3335,-3.0518,35.2173,-11366,-3852,6450
476.848883622,-0.6602,0.3574,1.0986,23.121,15.776,-73.718,-9.2163,7.0801,30.8228,-11806,-3787,6957
476.948883712,-0.6675,0.1743,0.8647,23.593,15.793,-71.812,-0.061,6.958,40.3442,-11936,-3681,6990
477.048883791,-0.7319,0.436,0.8916,24.296,16.046,-69.774,-1.4038,-6.1035,38.6353,-12129,-3652,7050
477.14888389,-0.5439,0.1577,1.2656,25.274,16.062,-67.676,-3.8452,4.0894,32.2266,-12336,-3623,7096
477.248884008,-0.7964,0.1777,1.0103,25.878,15.76,-65.808,2.1362,2.6245,34.9121,-12692,-3571,7151
477.348884144,-0.521,0.27,0.9824,26.18,15.617,-64.111,-3.0518,1.709,31.311,-12789,-3484,7158
477.448884151,-0.4893,0.2959,1.1323,26.713,15.491,-62.21,8.1787,0.6714,31.0669,-12975,-3405,7190
477.548884269,-0.3477,0.2354,0.9966,26.845,15.002,-61.183,-7.019,-0.1221,22.0337,-13307,-3342,7324
477.648884331,-0.4048,0.2568,1.1138,26.268,14.974,-59.881,1.2817,11.6577,24.0479,-13334,-3199,7361
477.748884431,-0.4771,0.2563,1.0801,26.483,14.777,-58.579,-2.9907,6.7749,23.7427,-13576,-3096,7701
477.848884567,-0.3477,0.2915,0.9883,26.373,14.634,-57.343,3.0518,-1.2207,20.9961,-13591,-2956,7754
477.948884574,-0.3398,0.3638,0.8921,26.559,14.359,-56.772,1.4038,-5.188,13.4277,-13637,-2895,7783
478.048884643,-0.2729,0.2847,1.0776,26.576,14.128,-56.261,2.9297,0.4883,14.5264,-13747,-2861,7851
478.148884658,-0.4917,0.3066,1.0073,26.241,13.716,-55.591,-4.5166,1.0986,19.8975,-13909,-2845,7909
478.248884785,-0.5107,0.2661,0.9785,26.301,13.596,-54.036,3.1128,0.4272,24.4141,-13765,-2769,7454
478.348884874,-0.7002,-0.0107,1.0469,26.169,13.744,-52.026,-3.9673,8.1177,29.6631,-13675,-2799,6600
478.448884909,-0.7925,-0.1206,0.9805,25.417,13.865,-49.433,-2.1362,2.5024,32.1655,-13449,-2723,5665
478.548884924,-0.8545,-0.1021,1.0508,24.626,13.991,-46.445,0.4883,4.3335,32.959,-13333,-2645,4860
478.648885014,-0.8599,-0.251,1.0195,23.769,14.425,-43.198,-3.2349,3.9062,31.7993,-13216,-2572,4111
478.748885122,-0.9443,-0.3193,0.9419,22.412,14.639,-40.001,-2.2583,-0.9766,35.3394,-13237,-2409,3832
478.848885193,-0.8506,-0.3809,1.1362,21.39,14.771,-36.508,-0.4272,-1.1597,36.1938,-13298,-2247,3640
478.948885227,-0.8423,-0.4194,1.0928,20.347,14.919,-32.734,-0.4883,3.3569,37.7808,-13362,-2106,3292
479.048885304,-0.896,-0.3447,0.9009,19.127,15.287,-28.652,2.3193,5.3101,41.3208,-13361,-1860,3135
479.148885384,-0.9204,-0.3906,1.0146,17.996,15.485,-24.521,-6.5918,0.5493,38.8184,-13488,-1654,3150
479.248885408,-0.8716,-0.3062,0.8066,16.913,15.738,-20.402,-2.0752,-3.3569,38.5742,-13528,-1416,3096
479.348885524,-0.8232,-0.1245,1.0522,15.974,16.232,-16.414,-2.8076,1.8921,35.8276,-13564,-1119,3278
479.448885641,-0.9644,-0.0986,0.9878,15.688,16.837,-12.552,-4.5776,-1.8921,34.5459,-13608,-869,3455
479.548885702,-0.5469,0.0156,1.0825,15.908,17.265,-8.69,9.1553,7.0801,39.1846,-13655,-625,3555
479.648885726,-0.6172,0.082,1.0439,16.018,17.007,-5.153,-5.3711,0.5493,32.2266,-14139,-394,4390
479.748885842,-0.6753,0.0845,1.1626,16.622,17.452,-1.241,8.728,2.9297,37.1704,-14297,-103,4878
479.848885959,-0.6489,0.1099,0.9365,17.336,17.369,2.252,-3.7842,0.1221,33.2031,-14474,207,5729
479.948886002,-0.7441,0.2607,1.0732,17.205,17.523,5.922,-4.9438,0.5493,36.9873,-15208,664,6917
480.048886087,-0.6211,0.1958,1.0405,17.781,17.556,9.662,-4.8218,3.7842,32.5317,-14555,801,6598
480.148886101,-0.6772,0.377,0.9536,18.781,17.628,13.222,7.4463,-0.9766,33.2031,-14671,1031,6994
480.248886133,-0.353,0.2129,1.0566,19.402,17.501,16.106,-4.3335,-1.9531,27.0996,-14410,1177,6890
480.348886258,-0.6279,0.3291,0.9009,19.924,17.221,18.984,2.8076,0.6714,26.9775,-14790,1417,7304
480.448886364,-0.6509,0.3354,1.0405,20.308,17.1,21.725,-2.6855,5.4932,28.7476,-14515,1558,7339
480.548886507,-0.5786,0.2783,1.0825,21.143,16.952,24.752,0.6104,5.127,24.4751,-14447,1693,7457
480.648886614,-0.6963,0.5342,0.9102,21.149,16.82,27.29,0.4272,-2.0752,25.8179,-14475,1881,7524
480.74888672,-0.5127,0.1968,1.0386,21.841,16.507,29.696,-0.3662,-1.3428,20.4468,-14401,1995,7593
480.848886826,-0.3135,0.3452,0.9956,21.649,16.304,31.816,-5.188,2.9297,20.2026,-14147,2158,7473
480.948886858,-0.23,0.3931,1.3262,21.517,16.512,34.069,1.8311,11.4746,20.1416,-14142,2297,7554
481.048886989,-0.3921,0.2061,1.5327,22.132,16.485,36.519,3.2349,9.8267,23.3765,-13994,2412,7560
481.148887066,-0.3911,0.2554,1.4409,22.709,16.49,38.705,2.9297,-1.77,17.0898,-13728,2387,6906
481.248887088,-0.3516,0.0361,0.9795,23.0,16.106,40.243,-0.4883,-0.6714,10.5591,-13457,2257,6048
481.348887183,-0.418,0.1851,0.8052,21.165,15.82,41.572,-13.6108,6.3477,15.625,-13180,2329,5209
481.448887205,-0.4419,0.002,1.3354,21.484,15.804,43.835,19.165,0.6714,21.3623,-12626,2314,4256
481.548887208,-0.4199,-0.2319,1.0522,21.297,15.293,45.621,-11.9019,-2.0752,16.1743,-12768,2215,3848
481.648887248,-0.4321,-0.0166,0.7153,19.748,15.079,47.395,7.5073,-4.5776,15.564,-12366,2343,3479
481.748887307,-0.5229,-0.2124,0.8804,18.787,15.046,48.9,-15.5029,-1.0986,10.6201,-12351,2202,3233
481.84888744,-0.3911,-0.1245,1.0205,16.556,15.414,50.411,2.0752,1.0376,13.1226,-12152,2441,3254
481.948887517,-0.2544,-0.437,1.0283,15.804,15.315,51.932,-2.2583,-1.3428,10.8643,-11974,2728,2956
482.048887581,-0.1758,-0.335,0.9688,14.189,15.37,53.459,5.6152,2.7466,13.0615,-12013,2644,2838
482.148887703,-0.1567,-0.4604,1.0889,12.585,15.09,54.981,-5.3711,3.6621,15.0757,-12051,2545,2935
482.248887806,-0.2656,-0.416,1.0464,10.591,14.969,56.75,-6.6528,0.6104,16.3574,-11740,2675,2934
482.348887873,-0.3115,-0.3838,1.2598,8.976,15.167,58.683,5.5542,0.7935,16.4795,-11796,2873,2983
482.448888013,-0.521,-0.2935,1.0796,8.492,14.991,60.573,3.3569,-2.6245,17.2119,-11631,2965,2717
482.548888153,-0.4341,-0.1987,0.9912,7.646,15.024,62.331,1.6479,-6.2866,17.334,-11887,2722,2730
482.648888294,-0.4658,-0.21,0.9009,6.713,15.029,64.248,-3.7842,4.5166,19.9585,-11672,2709,2892
482.748888323,-0.6875,0.0063,1.105,5.735,15.656,66.539,2.9297,-3.54,21.3623,-11402,2882,2917
482.84888839,-0.3276,-0.2778,1.3164,5.872,16.013,69.175,-3.2349,-8.0566,23.5596,-11348,2908,2950
482.948888437,-0.6538,-0.1333,0.8042,5.367,16.65,71.829,3.1738,-3.1738,24.4751,-11228,3023,3088
483.048888528,-0.4746,-0.1875,1.1367,5.087,16.996,74.394,-11.3525,4.7607,26.123,-11360,3064,3269
483.148888583,-0.7114,0.0298,1.0078,4.702,17.798,77.52,0.3662,0.7935,29.8462,-10873,3248,3273
483.248888638,-0.582,-0.0615,1.0879,5.416,18.589,80.629,-2.7466,0.9766,25.6348,-10918,3243,3591
483.348888638,-0.6064,-0.0508,0.9028,5.834,19.539,83.65,0.4883,6.6528,27.5269,-10547,3272,3432
483.448888638,-0.2227,-0.0513,1.0474,5.669,20.347,86.314,-3.1128,16.6626,22.3389,-10557,3327,3564
483.548888767,-0.6582,-0.0298,0.7598,6.68,20.539,84.348,3.2959,-7.6294,19.3481,-10204,3339,3513
483.648888896,-0.1489,0.0356,1.1885,7.273,21.176,80.112,-4.9438,10.5591,20.0195,-10374,3302,3689
483.748888952,-0.6523,-0.0913,1.001,8.443,21.896,76.278,3.54,0.6104,23.2544,-9693,3374,3398
483.84888897,-0.5664,0.0239,1.0615,9.651,22.346,72.636,-0.1831,4.2114,25.9399,-9822,3270,3541
483.948889062,-0.5811,0.0,0.9609,10.915,22.648,69.285,0.1221,-1.4648,26.4282,-9484,3289,3403
484.048889178,-0.6572,-0.04,1.0273,12.085,23.077,66.154,-1.4648,2.0142,26.5503,-9550,3197,3523
484.148889296,-0.6177,0.022,0.9961,13.118,23.676,63.243,-2.0142,1.709,27.0386,-9267,3238,3701
484.248889396,-0.6504,-0.0024,0.7715,14.332,24.038,60.458,0.0,3.6011,29.2358,-9067,3261,3774
484.348889458,-0.8149,-0.0015,1.062,15.76,24.598,58.013,2.3193,3.7842,28.9307,-8988,3189,3868
484.448889484,-0.647,-0.0439,1.0889,17.347,24.857,55.706,-0.9155,1.9531,29.1748,-8702,3104,3904
484.548889565,-0.7393,0.0815,0.9648,18.105,24.972,53.317,-4.1504,-2.3193,29.9683,-8779,2977,4069
484.648889609,-0.7178,0.0342,0.8838,19.446,24.917,51.306,-3.2959,-1.8921,31.7993,-8524,2916,4109
484.748889708,-0.4268,-0.0166,1.2241,20.786,24.944,49.537,-1.5869,-3.54,32.5317,-8343,2868,4076
484.848889715,-0.9956,-0.0215,0.7588,21.989,24.84,47.829,-1.8921,-6.958,33.7524,-8212,2705,3934
484.948889833,-0.5288,-0.0469,1.1768,23.132,24.961,46.516,-6.5308,2.8687,34.3628,-7976,2577,3629
485.048889938,-1.2627,0.2456,0.9897,23.588,24.741,44.989,-4.8828,16.1743,37.1094,-7942,2500,3550
485.148890045,-0.7158,0.0312,1.0059,25.972,25.62,44.725,8.667,2.5024,36.9873,-7379,2394,3505
485.248890133,-0.813,0.1455,1.186,27.241,26.268,43.401,4.9438,1.1597,35.6445,-7439,2150,3770
485.348890221,-0.896,-0.0229,1.042,29.163,25.735,41.902,-1.3428,-9.7046,31.25,-8287,1727,4566
485.448890253,-0.3452,0.2842,1.2183,28.894,25.307,39.232,-0.8545,3.479,32.3486,-7907,1930,4405
485.548890341,-0.6987,-0.0269,0.8628,30.471,24.851,37.172,2.0752,-5.3101,27.8931,-7642,2042,4146
485.648890429,-0.7241,0.1274,0.9985,30.317,24.961,34.651,-11.1084,0.6104,31.3721,-7483,1116,4205
485.748890554,-0.8081,-0.0127,0.9497,31.498,24.873,32.833,5.3711,1.0986,32.7759,-7464,1183,3881
485.848890624,-0.7256,-0.0161,1.1353,32.585,24.884,31.014,-1.3428,-0.061,33.2031,-7013,1068,3670
485.948890749,-0.8477,0.019,0.9912,33.201,24.505,29.191,-2.1362,-2.3193,36.499,-6994,807,3602
486.048890786,-0.7168,-0.0259,1.0869,34.069,24.478,27.768,-0.9766,1.0376,33.5693,-7136,581,3585
486.148890825,-0.6748,-0.0464,0.9116,34.876,24.593,26.191,-0.7324,3.3569,34.3628,-6838,490,3480
486.248890939,-0.6216,0.061,1.0728,35.189,24.697,24.324,-3.0518,1.77,31.1279,-7090,14,3677
486.348891033,-0.8555,-0.0361,0.9087,35.64,24.802,21.846,-4.5166,-3.9673,27.71,-6812,-35,3618
486.448891054,-0.4116,-0.0107,1.1475,35.755,25.115,19.072,1.709,2.0752,23.9258,-6980,-220,3652
486.54889113,-0.3784,0.0439,0.8813,35.288,25.422,15.76,-1.9531,-0.6104,20.6909,-6954,-362,3670
486.648891262,-0.5015,0.0103,0.9614,34.711,25.884,12.206,-1.9531,-0.7935,18.6768,-6877,-426,3667
486.748891339,-0.3315,-0.0811,1.0234,34.222,26.169,8.635,3.6621,-0.6104,21.4233,-6971,-638,3665
486.848891415,-0.5361,0.0635,1.1567,33.695,26.23,5.63,-1.709,-1.4038,27.2827,-7000,-799,3666
486.948891454,-0.5894,-0.0303,0.8433,34.047,26.274,3.01,-0.5493,0.1221,26.001,-6898,-919,3673
487.048891554,-0.3125,0.022,1.165,33.827,26.543,0.423,-0.4272,6.897,26.3062,-7139,-1173,3712
487.148891599,-0.5918,0.0181,0.9595,33.937,26.763,-1.961,0.1831,0.7935,26.3062,-7116,-1316,3839
487.248891682,-0.4844,-0.002,0.9766,34.047,26.834,-4.559,-3.7231,0.7324,27.5879,-7231,-1456,4076
487.348891747,-0.792,0.0479,1.0435,33.777,26.834,-7.026,0.2441,1.5869,28.4424,-7372,-1604,4123
487.448891829,-0.5059,0.0503,0.9229,34.321,26.603,-9.465,3.6621,4.3335,29.2358,-7429,-1767,4305
487.548891931,-0.5615,0.0317,1.1646,34.547,26.57,-11.607,-7.5684,6.1035,32.8369,-7585,-1922,4374
487.648891939,-0.5229,0.0049,0.8032,34.623,26.098,-13.293,-5.0659,-3.2959,37.4756,-7643,-2058,4303
487.748892078,-0.8447,0.0752,0.9536,34.898,26.054,-14.667,-8.1787,7.6904,39.0625,-7801,-2186,4343
487.848892179,-0.9097,0.1328,1.0098,36.727,25.543,-15.793,8.2397,4.0894,40.8936,-7979,-2343,4714
487.948892299,-0.7812,0.2339,1.1836,37.963,25.208,-17.457,-1.1597,4.5776,37.5977,-8258,-2548,5164
488.048892368,-0.6538,0.1299,1.0327,39.518,24.554,-18.869,3.7231,5.188,40.4053,-8453,-2762,5418
488.148892439,-0.7944,0.2295,0.8613,40.902,23.621,-20.759,5.4932,-1.8921,39.0625,-8695,-2992,5566
488.248892454,-0.8433,0.1396,1.0459,41.539,22.885,-22.615,-8.4229,-2.2583,37.5366,-9134,-3211,5754
488.348892562,-0.7383,0.2188,0.8491,41.781,22.006,-24.34,-5.9814,-2.5024,39.978,-9370,-3340,5847
488.448892595,-0.0391,0.2031,1.2749,41.468,21.533,-26.982,-7.2021,-6.0425,23.9258,-9544,-3324,5778
488.548892703,-0.2388,0.1465,0.8467,41.012,21.204,-31.207,11.1084,-6.5918,6.1646,-9512,-3361,5637
488.648892737,0.6855,0.0913,1.3345,39.529,21.33,-36.085,0.2441,5.9204,3.1738,-9493,-3519,5237
488.748892752,0.2603,0.1001,1.02,36.491,21.456,-41.391,-1.8311,-1.9531,-7.3242,-9342,-3590,4701
488.848892785,0.2793,-0.0732,1.0049,33.728,21.396,-46.73,2.8076,-3.1738,-14.1602,-9050,-3597,4110
488.94889293,0.6543,-0.1611,1.0967,29.971,21.017,-52.855,-4.7607,-4.9438,-22.7051,-8950,-3590,3863
489.04889295,0.7031,-0.0474,1.0093,25.307,20.654,-59.337,-7.6294,-3.0518,-30.6396,-8790,-3425,3811
489.148892971,0.6626,-0.0449,0.8496,20.945,19.726,-66.094,0.5493,-0.6104,-36.1328,-8521,-3184,3715
489.248892974,0.709,-0.1016,1.0552,17.853,18.364,-72.653,5.9204,0.7324,-35.2173,-8382,-3117,3699
489.348893014,0.811,-0.0532,0.9302,14.821,16.65,-78.563,1.77,-1.4038,-33.2642,-8316,-2965,3981
489.448893016,0.4443,0.1812,0.8569,12.063,14.804,-84.232,1.77,2.7466,-40.7715,-8327,-2766,4393
489.54889313,0.9243,0.1304,0.8774,10.36,12.513,-89.473,0.9766,3.8452,-33.8135,-8222,-2603,4560
489.648893133,0.4233,0.1084,0.9551,8.685,10.3,-93.933,-5.9814,-2.3804,-34.4238,-8214,-2303,4903
489.74889321,0.1318,0.1963,0.6982,7.498,8.509,-97.559,-6.4697,1.4648,-23.6816,-8121,-2093,5060
489.84889325,-0.0034,0.252,1.1704,6.916,7.465,-99.404,-2.1973,8.1787,-1.0376,-7980,-2004,5296
489.948893382,-0.4155,0.2666,1.043,8.13,7.394,-99.745,12.3291,3.54,4.6997,-7875,-2082,5369
490.048893445,-0.3008,0.1968,1.2559,8.844,7.663,-99.322,-3.0518,7.9346,18.4937,-8236,-2366,5625
490.14889349,-0.645,0.2124,0.8086,9.196,8.042,-98.432,-6.1646,-3.6621,23.9868,-8318,-2405,5693
490.248893592,-0.916,0.2769,0.9766,9.844,9.294,-96.498,0.3052,5.5542,44.7388,-8259,-2403,5701
490.3488936,-0.9004,-0.1382,1.1548,11.283,10.267,-94.136,-4.3335,7.9956,44.0674,-8713,-2691,5841
490.448893628,-1.0317,0.2202,0.7588,12.464,11.558,-91.824,-1.4648,-5.4321,46.2646,-8758,-2863,5560
490.548893692,-1.2529,0.2163,1.0098,13.92,12.448,-89.67,0.0,6.2866,46.5698,-8890,-3171,5243
490.648893775,-0.7212,0.0156,1.145,16.172,13.37,-87.171,7.4463,0.1221,47.5464,-8960,-3308,5398
490.748893858,-0.6309,0.2876,0.856,17.111,13.552,-85.781,-7.2632,-1.2817,38.0859,-9852,-3530,6164
490.848893977,-0.9902,0.3521,0.874,17.292,14.172,-84.771,-11.3525,2.9297,40.3442,-9899,-3429,6606
490.948893986,-1.0317,0.353,1.0132,18.935,14.453,-82.535,7.2021,1.2207,56.0303,-10335,-3463,7109
491.048894073,-1.042,0.2842,1.0552,21.335,14.546,-79.887,1.3428,-4.4556,45.4712,-10618,-3580,7459
491.148894106,-0.8828,0.3276,0.9717,22.28,14.606,-78.245,-4.4556,-3.418,37.1704,-11027,-3696,7290
491.248894121,-0.7402,0.2837,0.7144,23.253,14.288,-76.591,-3.9062,-8.4839,39.2456,-11250,-3770,7317
491.348894265,-0.9146,0.2622,1.0903,23.533,14.601,-75.13,-2.3804,-1.8921,39.856,-11251,-3737,6772
491.448894353,-0.8315,0.0137,1.1836,24.994,14.139,-72.96,-1.709,-2.9907,36.5601,-11778,-3779,7103
491.548894424,-0.6938,0.4312,0.8267,24.796,14.645,-71.043,-7.5684,-4.7607,35.0952,-11882,-3673,7037
491.648894531,-0.604,0.1392,1.1309,25.373,15.035,-68.824,-0.061,6.2866,35.0342,-11740,-3704,6406
491.748894619,-0.7378,0.0649,1.1499,25.922,15.167,-66.835,-1.2207,6.6528,33.5083,-11819,-3762,5686
491.848894782,-0.6147,0.1587,1.0488,25.823,15.194,-64.946,0.9155,-1.4038,31.189,-11772,-3807,5015
491.948894796,-0.6787,0.0952,0.9712,25.56,15.194,-63.495,-2.0752,0.8545,26.2451,-12024,-3732,5049
492.048894871,-0.6689,0.208,1.0659,25.252,15.26,-61.804,3.7231,3.6011,28.3203,-12418,-3620,5584
492.148894946,-0.6152,0.1309,0.9111,25.521,15.112,-60.194,-0.7935,-3.1128,24.7803,-12604,-3552,5967
492.248895003,-0.4819,0.3076,0.8062,24.5,14.996,-58.953,-6.8359,0.061,21.8506,-13195,-3473,6338
492.348895116,-0.6479,0.2764,0.7202,24.214,14.996,-57.909,-4.0283,-2.9297,19.9585,-12947,-3288,6393
492.448895192,-0.8066,0.2061,1.0566,24.208,15.095,-56.195,-4.3945,-1.8921,26.123,-13395,-3176,6760
492.548895286,-0.5591,0.2275,1.0005,24.543,15.035,-54.327,2.4414,0.4272,27.0996,-13236,-3090,6613
492.64889538,-0.4028,0.1592,1.2056,24.67,14.969,-52.482,1.1597,3.7231,26.9775,-13219,-3061,6129
492.7488954,-0.6099,0.0918,0.9932,24.582,14.897,-50.499,-0.7935,3.54,26.8555,-13200,-3063,5489
492.848895402,-0.6577,0.0303,1.0386,24.011,14.925,-48.307,-1.4648,3.2349,28.0151,-13000,-3036,4728
492.948895496,-0.6807,-0.0635,1.0142,23.472,15.068,-45.873,-0.7324,3.1738,28.1372,-12948,-2977,4083
493.048895502,-0.7808,-0.1182,0.9438,22.758,15.244,-43.292,-3.418,0.061,28.5645,-13124,-2894,3962
493.148895601,-0.6011,-0.1328,1.1123,21.945,15.375,-40.633,-3.2959,0.0,30.0293,-13092,-2721,3843
493.248895701,-0.6143,-0.1357,1.103,21.418,15.491,-37.809,2.6855,2.9907,31.25,-13198,-2561,3841
493.3488958,-0.731,-0.0615,0.8916,20.814,15.793,-34.997,1.4648,2.6245,29.6631,-13285,-2422,3799
493.448895918,-0.7646,-0.0283,0.8921,20.056,15.897,-32.102,-1.1597,-1.0376,31.311,-13363,-2277,3793
493.548895926,-0.7666,0.0132,1.1372,19.808,15.947,-28.965,-0.7324,-1.6479,32.5317,-13462,-2127,3791
493.648896007,-0.5586,-0.0552,1.1113,19.49,16.073,-25.675,-3.2349,2.8687,32.5317,-13587,-1952,3802
493.748896032,-0.5303,-0.0806,1.0503,19.286,16.276,-22.429,4.4556,1.8311,32.5928,-13591,-1759,3727
493.848896095,-0.8818,-0.123,0.9111,18.891,16.463,-19.248,-5.9204,1.9531,30.9448,-13686,-1580,3763
493.948896194,-0.6328,-0.0903,0.9238,18.062,16.639,-16.078,-3.479,2.2583,31.5552,-13691,-1378,3708
494.048896279,-0.5415,-0.1538,1.0371,17.419,16.979,-12.854,0.0,3.2349,30.0903,-13679,-1172,3628
494.148896347,-0.772,-0.3203,1.2446,16.469,17.271,-9.706,-10.1929,-0.1221,27.8931,-13643,-945,3576
494.248896415,-0.7876,-0.2192,0.8442,15.848,17.188,-6.636,10.9253,0.2441,31.4331,-13626,-710,3550
494.348896483,-0.499,0.0308,1.2778,15.073,16.842,-3.851,-3.8452,8.4229,26.7334,-13970,-577,3905
494.448896588,-0.7275,-0.1201,0.7939,14.908,17.183,-0.906,7.9956,-2.9297,27.1606,-13922,-434,3759
494.548896655,-0.5264,-0.1953,1.1475,14.359,16.935,1.884,-4.1504,3.9673,28.0762,-13981,-301,3999
494.648896779,-0.707,-0.0986,0.7485,13.431,16.946,4.867,-3.2349,-5.6152,29.1138,-14348,-16,4366
494.748896884,-0.2852,-0.0835,1.1748,12.689,17.029,7.619,-2.8076,2.6245,25.1465,-13860,137,3723
494.848896914,-0.4507,-0.0967,0.9824,12.563,16.897,10.267,3.7231,-0.6714,24.353,-13789,241,3826
494.948897056,-0.4429,-0.0981,1.085,12.294,16.793,12.865,-1.4648,-0.6714,24.5361,-13605,380,3606
495.048897202,-0.4009,-0.1079,0.9077,11.821,16.512,15.095,0.5493,-0.5493,21.7285,-13869,518,3769
495.148897219,-0.3213,-0.1826,1.0518,11.25,16.359,17.358,-3.9062,-1.3428,20.2637,-13626,639,3640
495.248897366,-0.2954,-0.189,0.9614,10.443,16.035,19.358,-0.3052,1.6479,19.3481,-13712,788,3779
495.348897421,-0.0864,-0.2847,1.0645,9.844,15.65,21.017,1.6479,1.77,13.7329,-13564,876,3615
495.448897494,-0.2676,-0.1543,1.1313,8.729,15.331,22.396,-4.5776,-2.5024,11.9019,-13607,956,3643
495.548897585,-0.084,-0.2114,1.0156,7.789,14.974,23.5,4.4556,4.2114,11.5356,-13494,1063,3614
495.648897732,-0.0947,-0.3018,1.1089,7.009,14.474,24.626,2.1362,-0.2441,10.8643,-13485,1075,3571
495.748897879,-0.2568,-0.375,0.8574,5.889,14.013,25.785,-4.5776,-2.8076,12.8174,-13478,1169,3632
495.848898008,-0.127,-0.3931,0.8901,4.389,13.42,26.829,-0.7324,-1.77,10.0708,-13455,1288,3600
495.948898062,-0.166,-0.4614,0.7793,3.148,12.854,27.894,-9.3384,-8.9111,11.0474,-13404,1388,3592
496.048898157,-0.2314,-0.4673,0.9961,1.412,12.497,28.878,9.4604,2.8687,9.1553,-13419,1525,3627
496.148898161,-0.1934,-0.395,0.8477,0.61,12.129,29.839,-2.7466,-2.8076,10.5591,-13210,1572,3321
496.248898165,-0.2349,-0.3794,1.1382,-0.439,11.607,30.833,0.9766,2.0752,11.4746,-13307,1601,3305
496.348898317,-0.1396,-0.3438,1.0029,-1.346,11.321,31.943,-0.8545,-2.3804,12.085,-13209,1661,3257
496.448898431,-0.1411,-0.4033,1.0596,-2.236,10.833,32.959,6.6528,-0.6104,9.9487,-13184,1663,3198
496.548898565,-0.0376,-0.4746,1.0854,-2.785,10.481,33.915,0.4272,0.2441,9.9487,-13072,1701,3172
496.648898606,-0.1533,-0.5322,0.9761,-3.274,10.107,34.81,4.2725,-1.5869,8.1177,-13123,1664,3244
496.748898646,-0.0244,-0.3306,1.1201,-4.395,9.855,35.557,-0.3052,1.5869,8.2397,-13181,1709,3313
496.84889878,0.0098,-0.3091,1.0112,-5.219,9.377,36.227,-3.1738,-0.061,6.4697,-13114,1779,3315
496.948898821,-0.0571,-0.1475,0.9702,-6.075,9.146,36.892,-0.7935,0.8545,6.2866,-13102,1845,3363
497.048898902,-0.0024,-0.229,1.0767,-6.581,8.833,37.485,-1.8311,1.8311,6.1646,-13103,1887,3368
497.148898948,-0.0713,-0.2207,0.9453,-6.801,8.492,38.046,-0.4883,0.2441,5.4321,-12968,1943,3296
497.248899012,0.0225,-0.2852,1.123,-6.96,8.168,38.568,3.0518,1.5869,5.8594,-12851,1985,3255
497.348899168,0.0015,-0.3228,1.0283,-7.119,7.789,39.023,2.5024,0.4883,4.3945,-12877,1954,3283
497.448899307,0.0508,-0.3789,1.0454,-7.399,7.344,39.353,-0.1831,1.1597,2.2583,-12893,1936,3258
497.548899445,0.0176,-0.2539,1.0059,-7.899,6.971,39.523,2.0142,0.4883,1.8921,-12846,1977,3279
497.648899472,-0.0054,-0.2383,1.0093,-8.251,6.553,39.639,0.4883,0.4272,1.3428,-12839,1973,3331
497.74889961,0.041,-0.2803,1.0566,-8.586,6.18,39.798,-0.1831,0.7324,1.8921,-12856,1961,3386
497.848899711,0.022,-0.2549,1.0615,-8.981,5.812,39.886,-1.709,0.7324,0.9766,-12900,1949,3421
497.948899775,0.021,-0.2373,1.0308,-9.366,5.455,39.968,-1.6479,-0.1831,0.4272,-12916,1929,3442
498.048899861,-0.0195,-0.2705,1.0107,-9.608,5.065,40.045,-0.4883,-0.1221,1.3428,-12950,1967,3454
498.148899986,0.0396,-0.2827,1.0713,-9.882,4.73,40.1,-0.7324,0.4272,0.9766,-12946,1994,3450
498.248900054,0.0239,-0.2334,1.0132,-10.146,4.449,40.128,-0.3662,1.0376,0.6104,-12936,1973,3484
498.348900179,-0.0308,-0.1816,0.9614,-10.338,4.125,40.144,0.4883,-0.7324,-0.1831,-12879,2031,3459
498.448900285,0.0815,-0.1631,1.0996,-10.432,3.812,40.144,-0.4272,-0.2441,-0.2441,-12834,2060,3469
498.54890039,0.0234,-0.165,1.0049,-10.415,3.439,40.139,0.061,-0.5493,0.1221,-12815,2063,3457
498.648900441,0.0415,-0.1758,1.0352,-10.41,3.12,40.161,0.061,-0.6714,-0.1831,-12843,2020,3447
498.748900565,0.0283,-0.2144,1.0112,-10.41,2.812,40.166,0.061,-0.3052,-0.061,-12853,1997,3462
498.848900689,0.0244,-0.2134,1.0244,-10.47,2.538,40.172,0.0,-0.2441,0.0,-12827,2053,3424
498.948900758,0.0293,-0.1743,1.0161,-10.53,2.285,40.172,0.0,0.0,-0.1221,-12810,2064,3446
499.048900904,0.0396,0.0205,1.0244,-10.278,2.027,40.193,0.5493,-0.4272,-0.1831,-12793,2069,3411
499.148900922,0.0293,-0.0229,1.0098,-9.827,1.791,40.199,-0.061,0.061,-0.1221,-12794,2077,3437
499.248901032,0.0376,-0.0034,1.0127,-9.327,1.571,40.199,0.0,0.1831,-0.1221,-12794,2086,3408
499.348901124,0.041,-0.0059,1.0112,-8.817,1.357,40.204,-0.061,0.0,-0.1221,-12772,2099,3450
499.448901252,0.0342,-0.0054,1.0151,-8.322,1.165,40.21,0.0,-0.061,-0.1221,-12777,2092,3425
499.548901307,0.0356,-0.0034,1.0117,-7.861,0.978,40.21,0.0,0.0,-0.1221,-12801,2093,3427
499.648901325,0.0352,-0.0049,1.0137,-7.416,0.797,40.21,0.0,0.061,-0.1221,-12788,2083,3419
499.748901417,0.0361,-0.0059,1.0156,-7.004,0.632,40.215,0.0,0.0,0.0,-12790,2092,3420
