Time,AccX,AccY,AccZ,AngleX,AngleY,AngleZ
2853.426647661,,,,,,
2853.526647737,0.0312,-0.022,1.0088,-0.703,-0.236,179.572
2853.626647738,0.0171,-0.0122,1.0103,-0.698,-0.231,179.572
2853.726647777,-0.0151,0.0044,1.0098,-0.698,-0.225,179.572
2853.826647871,-0.0122,-0.0166,1.0093,-0.692,-0.225,179.572
2853.926647872,0.0156,-0.0322,1.0103,-0.692,-0.231,179.572
2854.026647966,0.0181,-0.0073,1.0112,-0.687,-0.231,179.572
2854.126647968,-0.001,0.0107,1.0093,-0.687,-0.22,179.572
2854.226648062,-0.0059,-0.0049,1.0112,-0.687,-0.22,179.572
2854.326648099,0.0127,-0.0298,1.0107,-0.692,-0.225,179.572
2854.42664821,0.0024,-0.0103,1.0103,-0.687,-0.231,179.572
2854.526648321,-0.0049,0.0049,1.0093,-0.687,-0.225,179.572
2854.626648396,0.0088,-0.002,1.0098,-0.687,-0.231,179.572
2854.726648396,0.0171,-0.0205,1.0103,-0.687,-0.236,179.572
2854.826648451,0.0015,-0.0239,1.0098,-0.692,-0.231,179.572
2854.92664847,-0.0127,-0.0098,1.0088,-0.687,-0.225,179.572
2855.026648488,0.0,-0.0029,1.0103,-0.687,-0.225,179.572
2855.126648544,0.022,-0.0098,1.0107,-0.687,-0.231,179.572
2855.2266486,0.0156,-0.0132,1.0112,-0.687,-0.231,179.572
2855.326648672,-0.0083,-0.0098,1.0093,-0.681,-0.225,179.572
2855.426648782,-0.0122,-0.0112,1.0093,-0.681,-0.225,179.572
2855.526648892,0.0083,-0.0181,1.0103,-0.681,-0.231,179.572
2855.626648983,0.0181,-0.0151,1.0107,-0.681,-0.231,179.572
2855.726649037,0.0059,-0.001,1.0103,-0.681,-0.231,179.572
2855.826649073,-0.0063,-0.001,1.0088,-0.687,-0.231,179.572
2855.926649164,0.0005,-0.0176,1.0103,-0.687,-0.231,179.572
2856.0266492,0.0103,-0.0254,1.0103,-0.687,-0.231,179.572
2856.126649291,0.0059,-0.0122,1.0103,-0.681,-0.231,179.572
2856.226649382,-0.002,0.0015,1.0103,-0.681,-0.225,179.572
2856.326649472,0.0034,-0.0044,1.0103,-0.681,-0.225,179.572
2856.426649488,0.0132,-0.019,1.0112,-0.681,-0.231,179.572
2856.526649503,0.0063,-0.0205,1.0103,-0.681,-0.231,179.572
2856.626649575,-0.0063,-0.0098,1.0098,-0.687,-0.231,179.572
2856.726649664,-0.002,-0.0063,1.0098,-0.687,-0.231,179.572
2856.826649736,0.0142,-0.0103,1.0103,-0.687,-0.236,179.572
2856.926649807,0.0156,-0.0127,1.0107,-0.687,-0.236,179.572
2857.02664986,0.0,-0.0103,1.0098,-0.681,-0.231,179.572
2857.126649968,-0.0083,-0.0103,1.0093,-0.681,-0.231,179.572
2857.226650076,0.0039,-0.0156,1.0112,-0.681,-0.231,179.572
2857.326650128,0.0132,-0.0151,1.0107,-0.681,-0.236,179.572
2857.426650179,0.0068,-0.0073,1.0103,-0.681,-0.236,179.572
2857.526650193,-0.0054,-0.0029,1.0088,-0.681,-0.236,179.572
2857.6266503,-0.0005,-0.0132,1.0098,-0.681,-0.236,179.572
2857.726650333,0.0117,-0.019,1.0107,-0.681,-0.236,179.572
2857.826650421,0.0068,-0.0137,1.0098,-0.681,-0.236,179.572
2857.926650491,-0.0029,-0.0044,1.0103,-0.681,-0.236,179.572
2858.026650598,0.0029,-0.0039,1.0103,-0.681,-0.242,179.572
2858.126650649,0.0098,-0.0107,1.0098,-0.681,-0.247,179.572
2858.226650774,0.0029,-0.0112,1.0098,-0.681,-0.253,179.572
2858.326650861,0.0078,-0.0166,1.0103,-0.681,-0.264,179.572
2858.426650948,0.0,-0.0093,1.0103,-0.681,-0.264,179.572
2858.526650961,0.0049,-0.0127,1.0098,-0.681,-0.264,179.572
2858.62665103,0.0024,-0.0073,1.0112,-0.681,-0.258,179.572
2858.726651061,0.0034,-0.0151,1.0103,-0.681,-0.269,179.572
2858.826651148,0.0039,-0.0161,1.0098,-0.681,-0.269,179.572
2858.926651253,0.0024,-0.0098,1.0098,-0.681,-0.269,179.572
2859.026651266,0.0073,-0.0132,1.0098,-0.676,-0.269,179.572
2859.126651297,0.0049,-0.0083,1.0103,-0.676,-0.269,179.572
2859.22665131,0.0063,-0.0073,1.0103,-0.676,-0.269,179.572
2859.326651414,0.0078,-0.0122,1.0103,-0.676,-0.269,179.572
2859.426651444,0.0044,-0.0098,1.0107,-0.676,-0.269,179.572
2859.526651548,0.0039,-0.0112,1.0103,-0.676,-0.269,179.572
2859.62665156,0.0044,-0.0137,1.0103,-0.67,-0.269,179.572
2859.72665159,0.0049,-0.0093,1.0103,-0.676,-0.269,179.572
2859.826651675,0.0005,-0.0132,1.0098,-0.67,-0.269,179.572
2859.92665176,0.0034,-0.0161,1.0103,-0.67,-0.269,179.572
2860.026651864,0.0034,-0.0103,1.0098,-0.67,-0.269,179.572
2860.126651876,0.0068,-0.0103,1.0103,-0.67,-0.269,179.572
2860.226651943,0.0039,-0.0093,1.0103,-0.67,-0.269,179.572
2860.326651953,0.0044,-0.0117,1.0103,-0.665,-0.269,179.572
2860.426652056,0.0049,-0.0137,1.0103,-0.665,-0.269,179.572
2860.526652177,0.0068,-0.0127,1.0103,-0.665,-0.269,179.572
2860.626652261,0.001,-0.0083,1.0107,-0.665,-0.264,179.572
2860.726652271,0.0049,-0.0127,1.0103,-0.67,-0.269,179.572
2860.826652299,0.0078,-0.0122,1.0098,-0.67,-0.269,179.572
2860.926652346,0.0024,-0.0083,1.0098,-0.67,-0.269,179.572
2861.026652412,0.0044,-0.0107,1.0107,-0.665,-0.264,179.572
2861.126652422,0.0044,-0.0146,1.0098,-0.67,-0.264,179.572
2861.226652487,0.0015,-0.0103,1.0098,-0.67,-0.264,179.572
2861.326652514,0.0049,-0.0156,1.0107,-0.67,-0.269,179.572
2861.426652616,0.002,-0.0098,1.0103,-0.67,-0.269,179.572
2861.52665268,0.0049,-0.0107,1.0107,-0.67,-0.275,179.572
2861.626652762,0.0068,-0.0146,1.0098,-0.67,-0.275,179.572
2861.726652827,0.0005,-0.0088,1.0107,-0.67,-0.275,179.572
2861.826652909,0.0063,-0.0142,1.0098,-0.67,-0.275,179.572
2861.926652936,0.0039,-0.0112,1.0098,-0.67,-0.275,179.572
2862.026653019,0.0044,-0.0117,1.0103,-0.67,-0.275,179.572
2862.12665312,0.0059,-0.0137,1.0103,-0.67,-0.275,179.572
2862.226653147,0.0078,-0.0122,1.0093,-0.67,-0.275,179.572
2862.326653229,0.0063,-0.0088,1.0098,-0.67,-0.28,179.572
2862.426653328,0.0049,-0.0103,1.0088,-0.67,-0.28,179.572
2862.526653335,0.0063,-0.0122,1.0093,-0.665,-0.275,179.572
2862.626653398,0.0034,-0.0098,1.0098,-0.665,-0.275,179.572
2862.726653461,0.0049,-0.0122,1.0103,-0.665,-0.275,179.572
2862.826653505,0.0044,-0.0103,1.0103,-0.665,-0.275,179.572
2862.926653623,0.0039,-0.0112,1.0098,-0.665,-0.275,179.572
2863.026653723,0.0059,-0.0122,1.0098,-0.665,-0.275,179.572
2863.12665373,0.0049,-0.0107,1.0098,-0.665,-0.275,179.572
2863.226653793,0.0029,-0.0098,1.0103,-0.665,-0.275,179.572
2863.326653799,0.0059,-0.0127,1.0107,-0.659,-0.275,179.572
2863.426653823,0.0049,-0.0078,1.0093,-0.659,-0.275,179.572
2863.526653884,0.0054,-0.0142,1.0093,-0.659,-0.275,179.572
2863.62665389,0.002,-0.0122,1.0098,-0.659,-0.275,179.572
2863.726653914,0.0034,-0.0127,1.0098,-0.659,-0.275,179.572
2863.82665392,0.0024,-0.0122,1.0103,-0.665,-0.275,179.572
2863.926654037,0.0044,-0.0127,1.0098,-0.665,-0.275,179.572
2864.026654043,0.0039,-0.0103,1.0103,-0.665,-0.275,179.572
2864.126654104,0.0088,-0.0122,1.0098,-0.665,-0.275,179.572
2864.226654147,-0.0005,-0.0107,1.0093,-0.665,-0.275,179.572
2864.326654263,0.0044,-0.0156,1.0098,-0.665,-0.275,179.572
2864.426654322,0.0024,-0.0088,1.0098,-0.665,-0.269,179.572
2864.526654364,0.0044,-0.0054,1.0103,-0.665,-0.269,179.572
2864.626654424,0.0078,-0.0103,1.0103,-0.665,-0.269,179.572
2864.726654447,0.0029,-0.0146,1.0107,-0.665,-0.269,179.572
2864.826654488,0.0015,-0.0142,1.0093,-0.67,-0.269,179.572
2864.926654585,0.0015,-0.0112,1.0098,-0.67,-0.269,179.572
2865.026654663,0.0049,-0.0103,1.0103,-0.67,-0.269,179.572
2865.126654705,0.0054,-0.0088,1.0098,-0.67,-0.269,179.572
2865.22665482,0.0054,-0.0088,1.0098,-0.67,-0.269,179.572
2865.32665486,0.0005,-0.0127,1.0093,-0.665,-0.264,179.572
2865.426654938,0.0029,-0.0132,1.0103,-0.665,-0.264,179.572
2865.52665494,0.0039,-0.0117,1.0107,-0.665,-0.258,179.572
2865.626654999,0.0088,-0.0117,1.0103,-0.665,-0.258,179.572
2865.726655002,0.0034,-0.0088,1.0107,-0.665,-0.258,179.572
2865.826655023,0.0039,-0.0127,1.0103,-0.665,-0.258,179.572
2865.926655045,0.0029,-0.0132,1.0103,-0.665,-0.258,179.572
2866.026655122,0.0029,-0.0117,1.0107,-0.665,-0.253,179.572
2866.126655125,0.0029,-0.0103,1.0107,-0.665,-0.253,179.572
2866.226655165,0.0063,-0.0127,1.0098,-0.665,-0.253,179.572
2866.326655222,0.0049,-0.0107,1.0107,-0.665,-0.253,179.572
2866.426655224,0.0039,-0.0103,1.0103,-0.665,-0.247,179.572
2866.526655299,0.0039,-0.0127,1.0098,-0.659,-0.247,179.572
2866.626655301,0.0034,-0.0127,1.0098,-0.659,-0.247,179.572
2866.726655321,0.0015,-0.0146,1.0117,-0.659,-0.247,179.572
2866.826655341,0.0039,-0.0088,1.0088,-0.665,-0.253,179.572
2866.926655454,0.0078,-0.0112,1.0103,-0.659,-0.247,179.572
2867.026655511,0.0176,-0.0039,1.0029,-0.665,-0.247,179.572
2867.126655587,0.0034,-0.0176,1.0093,-0.665,-0.253,179.572
2867.226655699,0.0,-0.0171,1.0088,-0.67,-0.253,179.572
2867.326655755,-0.0068,-0.0166,1.0127,-0.67,-0.253,179.572
2867.42665583,0.0059,-0.0093,1.0103,-0.67,-0.253,179.572
2867.526655867,0.0083,-0.0073,1.0107,-0.67,-0.253,179.572
2867.626655978,0.0117,-0.0054,1.0093,-0.67,-0.253,179.572
2867.726656015,0.0098,-0.0107,1.0112,-0.67,-0.253,179.572
2867.82665609,0.0005,-0.0112,1.0107,-0.67,-0.253,179.572
2867.926656219,0.0,-0.0156,1.0107,-0.676,-0.247,179.572
2868.026656238,0.0005,-0.0142,1.0103,-0.676,-0.253,179.572
2868.126656349,0.0049,-0.0112,1.0103,-0.676,-0.247,179.572
2868.226656424,0.0068,-0.0098,1.0098,-0.676,-0.247,179.572
2868.326839898,0.0063,-0.0083,1.0107,-0.676,-0.247,179.572
2868.426839915,0.0073,-0.0107,1.0103,-0.67,-0.247,179.572
2868.526840025,0.0034,-0.0103,1.0107,-0.67,-0.247,179.572
2868.626840042,0.002,-0.0142,1.0098,-0.67,-0.247,179.572
2868.72684006,0.002,-0.0142,1.0098,-0.67,-0.247,179.572
2868.826840188,0.0039,-0.0103,1.0103,-0.67,-0.247,179.572
2868.926840298,0.0078,-0.0083,1.0112,-0.67,-0.247,179.572
2869.026840408,0.002,-0.0093,1.0117,-0.67,-0.247,179.572
2869.126840518,0.0024,-0.0132,1.0103,-0.665,-0.247,179.572
2869.226840628,0.0049,-0.0127,1.0098,-0.665,-0.247,179.572
2869.326840681,0.0054,-0.0117,1.0098,-0.665,-0.247,179.572
2869.426840752,0.0063,-0.0117,1.0103,-0.665,-0.247,179.572
2869.526840842,0.0034,-0.0088,1.0107,-0.665,-0.247,179.572
2869.626840951,0.0073,-0.0127,1.0103,-0.665,-0.253,179.572
2869.726840986,0.0039,-0.0107,1.0103,-0.665,-0.253,179.572
2869.826841057,0.0073,-0.0093,1.0093,-0.665,-0.253,179.572
2869.926841147,0.0034,-0.0034,1.0093,-0.659,-0.253,179.572
2870.026841219,0.0127,-0.0156,1.0098,-0.665,-0.253,179.572
2870.126841327,0.0005,-0.0078,1.0103,-0.665,-0.242,179.572
2870.22684138,-0.0024,-0.0137,1.0103,-0.665,-0.236,179.572
2870.326841488,0.0029,-0.02,1.0098,-0.665,-0.236,179.572
2870.426841521,-0.0039,-0.0127,1.0093,-0.665,-0.231,179.572
2870.526841554,0.0132,-0.0146,1.0098,-0.67,-0.236,179.572
2870.626841587,0.0,-0.0029,1.0107,-0.67,-0.236,179.572
2870.726841657,0.0078,-0.0098,1.0103,-0.676,-0.236,179.572
2870.826841746,0.002,-0.0098,1.0098,-0.67,-0.242,179.572
2870.926841853,0.002,-0.0098,1.0098,-0.67,-0.242,179.572
2871.026841923,0.0034,-0.0156,1.0107,-0.676,-0.247,179.572
2871.12684203,0.0029,-0.0151,1.0107,-0.676,-0.247,179.572
2871.226842063,0.0044,-0.0073,1.0098,-0.676,-0.242,179.572
2871.326842095,0.0127,-0.0107,1.0098,-0.67,-0.247,179.572
2871.426842127,0.0029,-0.0059,1.0103,-0.67,-0.242,179.572
2871.526842233,0.0049,-0.0146,1.0103,-0.67,-0.242,179.572
2871.626842283,0.0024,-0.0127,1.0103,-0.67,-0.242,179.572
2871.726842315,0.0015,-0.0098,1.0107,-0.665,-0.242,179.572
2871.826842384,0.0034,-0.0166,1.0098,-0.67,-0.242,179.572
2871.92684249,0.0024,-0.0078,1.0107,-0.665,-0.242,179.572
2872.026842595,0.0073,-0.0059,1.0103,-0.67,-0.242,179.572
2872.126842701,0.0112,-0.0122,1.0098,-0.67,-0.242,179.572
2872.226842715,-0.0034,-0.0127,1.0103,-0.665,-0.247,179.572
2872.326842819,-0.0034,-0.0127,1.0103,-0.665,-0.247,179.572
2872.42684285,0.0122,-0.022,1.0098,-0.67,-0.253,179.572
2872.52684288,0.0024,-0.0029,1.0112,-0.665,-0.253,179.572
2872.626842892,0.0083,-0.0093,1.0098,-0.67,-0.253,179.572
2872.726842904,0.0103,-0.0098,1.0098,-0.67,-0.247,179.572
2872.826842953,0.0029,-0.0088,1.0103,-0.676,-0.247,179.572
2872.926843002,-0.0005,-0.0156,1.0098,-0.676,-0.253,179.572
2873.026843032,0.0015,-0.0215,1.0093,-0.681,-0.253,179.572
2873.1268431,-0.001,-0.0068,1.0107,-0.676,-0.253,179.572
2873.22684313,0.0078,-0.0132,1.0103,-0.676,-0.253,179.572
2873.326843159,0.0049,-0.0103,1.0093,-0.676,-0.253,179.572
2873.426843207,0.0029,-0.0063,1.0093,-0.676,-0.253,179.572
2873.526843291,0.0093,-0.0166,1.0093,-0.676,-0.253,179.572
2873.626843357,0.0,-0.0068,1.0103,-0.676,-0.253,179.572
2873.726843479,0.0049,-0.0117,1.0093,-0.676,-0.253,179.572
2873.826843601,0.0029,-0.0122,1.0098,-0.67,-0.253,179.572
2873.926843704,0.0049,-0.0142,1.0098,-0.67,-0.253,179.572
2874.026843789,0.0049,-0.0117,1.0098,-0.67,-0.253,179.572
2874.126843855,0.0024,-0.0088,1.0098,-0.67,-0.253,179.572
2874.226843958,0.0107,-0.0103,1.0107,-0.67,-0.253,179.572
2874.326844023,0.0083,-0.0073,1.0098,-0.67,-0.253,179.572
2874.42684405,0.0088,-0.0107,1.0103,-0.67,-0.253,179.572
2874.526844134,0.0063,-0.0127,1.0088,-0.67,-0.253,179.572
2874.627516433,0.0024,-0.0127,1.0093,-0.67,-0.253,179.572
2874.727516554,0.0029,-0.0132,1.0098,-0.67,-0.253,179.572
2874.827516619,0.001,-0.0132,1.0093,-0.67,-0.253,179.572
2874.927516646,0.0034,-0.0107,1.0098,-0.67,-0.258,179.572
2875.027516674,0.0063,-0.0137,1.0103,-0.67,-0.253,179.572
2875.127516757,0.0088,-0.0112,1.0088,-0.67,-0.253,179.572
2875.22751684,0.0112,-0.0039,1.0107,-0.67,-0.253,179.572
2875.327516904,0.0044,-0.0063,1.0107,-0.67,-0.253,179.572
2875.427516949,0.0049,-0.0205,1.0103,-0.67,-0.253,179.572
2875.527516994,-0.001,-0.0093,1.0107,-0.67,-0.253,179.572
2875.62751702,0.0054,-0.0059,1.0107,-0.67,-0.253,179.572
2875.727517028,0.0117,-0.0049,1.0132,-0.676,-0.247,179.572
2875.827517054,0.0122,-0.001,1.0127,-0.676,-0.253,179.572
2875.927517062,0.0127,-0.0073,1.0098,-0.687,-0.253,179.572
2876.027517089,0.0063,-0.0117,1.0098,-0.681,-0.253,179.572
2876.127517171,0.0,-0.0142,1.0093,-0.687,-0.253,179.572
2876.227517253,0.0005,-0.0181,1.0103,-0.687,-0.253,179.572
2876.327517259,0.0068,-0.0112,1.0107,-0.692,-0.253,179.572
2876.42751734,0.0078,-0.0107,1.0098,-0.687,-0.253,179.572
2876.527517439,0.0029,-0.0117,1.0103,-0.692,-0.253,179.572
2876.627517557,0.0049,-0.0078,1.0098,-0.687,-0.253,179.572
2876.727517637,0.0083,-0.0103,1.0103,-0.687,-0.253,179.572
2876.827517736,0.0059,-0.0137,1.0088,-0.687,-0.247,179.572
2876.927517854,-0.0005,-0.0132,1.0103,-0.681,-0.247,179.572
2877.027517935,-0.002,-0.0073,1.0103,-0.681,-0.247,179.572
2877.12751796,0.0107,-0.0171,1.0103,-0.681,-0.253,179.572
2877.227518059,0.0063,-0.0059,1.0103,-0.681,-0.253,179.572
2877.327518064,0.0103,-0.0107,1.0088,-0.687,-0.253,179.572
2877.427518162,0.0107,-0.0103,1.0103,-0.681,-0.247,179.572
2877.527518186,0.0068,-0.0107,1.0103,-0.681,-0.242,179.572
2877.627518265,-0.002,-0.0142,1.0103,-0.681,-0.242,179.572
2877.72751827,0.0005,-0.0181,1.0112,-0.681,-0.247,179.572
2877.827518331,0.0044,-0.0107,1.0103,-0.687,-0.253,179.572
2877.927518392,0.0088,-0.0083,1.0098,-0.681,-0.253,179.572
2878.027518415,0.0093,-0.0112,1.0098,-0.681,-0.242,179.572
2878.127518439,0.0024,-0.0049,1.0098,-0.676,-0.242,179.572
2878.227518463,0.0029,-0.0156,1.0103,-0.681,-0.242,179.572
2878.327518485,0.0029,-0.0151,1.0107,-0.687,-0.247,179.572
2878.4275186,0.002,-0.0068,1.0103,-0.687,-0.247,179.572
2878.527518604,0.0083,-0.0176,1.0103,-0.687,-0.242,179.572
2878.627518645,0.0054,-0.0039,1.0107,-0.681,-0.236,179.572
2878.727518723,0.0093,-0.0063,1.0103,-0.687,-0.236,179.572
2878.827518838,0.0073,-0.0132,1.0103,-0.681,-0.236,179.572
2878.927518879,-0.0029,-0.0107,1.0107,-0.681,-0.236,179.572
2879.027518883,0.002,-0.02,1.0103,-0.681,-0.236,179.572
2879.127518905,0.002,-0.0132,1.0103,-0.676,-0.236,179.572
2879.227518909,0.002,-0.0078,1.0107,-0.676,-0.236,179.572
2879.327518949,0.0068,-0.0088,1.0107,-0.676,-0.236,179.572
2879.42751897,0.0054,-0.0088,1.0107,-0.67,-0.236,179.572
2879.527519009,0.0054,-0.0127,1.0103,-0.67,-0.236,179.572
2879.627519012,0.0005,-0.0151,1.0103,-0.67,-0.242,179.572
2879.727519052,0.0039,-0.0098,1.0098,-0.67,-0.236,179.572
2879.827519054,0.0073,-0.0107,1.0103,-0.67,-0.236,179.572
2879.927519094,0.0112,-0.0068,1.0098,-0.67,-0.242,179.572
2880.027519152,0.0166,-0.002,1.0088,-0.67,-0.231,179.566
2880.127519247,0.0073,-0.0063,1.0112,-0.681,-0.214,179.566
2880.22751925,0.0024,-0.0024,1.0103,-0.687,-0.203,179.566
2880.327519307,0.0063,-0.0244,1.0088,-0.692,-0.192,179.566
2880.427519326,-0.0024,-0.002,1.0098,-0.692,-0.192,179.566
2880.527519365,0.0117,-0.0225,1.0083,-0.698,-0.203,179.566
2880.627519403,0.0,-0.0083,1.0117,-0.692,-0.198,179.566
2880.727519497,0.0054,-0.0098,1.0107,-0.698,-0.198,179.566
2880.827519516,0.0078,-0.0098,1.0107,-0.698,-0.192,179.566
2880.92751961,-0.0005,-0.0073,1.0107,-0.698,-0.192,179.566
2881.02751963,0.0161,-0.0171,1.0107,-0.703,-0.192,179.566
2881.127519631,0.0054,0.0029,1.0112,-0.698,-0.187,179.566
2881.227519707,0.002,-0.0278,1.0103,-0.703,-0.181,179.566
2881.327519799,0.0156,-0.0127,1.0103,-0.703,-0.187,179.577
2881.427519818,0.0039,-0.002,1.0088,-0.692,-0.192,179.577
2881.527519892,0.0049,-0.0259,1.0098,-0.692,-0.192,179.577
2881.627520021,-0.0098,-0.0039,1.0107,-0.687,-0.192,179.577
2881.727520095,0.0015,-0.04,1.0073,-0.698,-0.187,179.566
2881.827520169,-0.0029,-0.0171,1.0127,-0.692,-0.176,179.566
2881.927520188,0.0,0.0005,1.0107,-0.709,-0.17,179.566
2882.027520206,0.0156,-0.0117,1.0103,-0.714,-0.176,179.566
2882.127520225,0.0044,-0.0073,1.0103,-0.72,-0.17,179.566
2882.227520299,0.0039,-0.0132,1.0103,-0.72,-0.17,179.566
2882.327520427,0.002,-0.0156,1.0098,-0.714,-0.165,179.566
2882.427520463,0.0,-0.0103,1.0103,-0.709,-0.165,179.566
2882.527520517,0.0059,-0.0122,1.0098,-0.709,-0.165,179.566
2882.627520571,0.0073,-0.0098,1.0103,-0.714,-0.165,179.566
2882.727520644,0.001,-0.0078,1.0112,-0.714,-0.159,179.566
2882.827520698,0.0088,-0.0146,1.0107,-0.714,-0.159,179.566
2882.927520789,0.002,-0.0122,1.0112,-0.714,-0.159,179.566
2883.027520881,0.0,-0.0137,1.0098,-0.714,-0.159,179.566
2883.127520972,0.0122,-0.0107,1.0103,-0.714,-0.165,179.566
2883.227521045,0.0083,-0.0078,1.0107,-0.714,-0.176,179.566
2883.327521098,0.0024,-0.001,1.0117,-0.714,-0.176,179.566
2883.427521169,0.0107,-0.0166,1.0103,-0.714,-0.176,179.566
2883.527521259,0.0034,-0.0103,1.0098,-0.714,-0.181,179.566
2883.627521312,0.0015,-0.0112,1.0098,-0.714,-0.181,179.566
2883.727521402,0.0103,-0.0234,1.0093,-0.72,-0.187,179.566
2883.827521492,0.0117,-0.0171,1.0093,-0.72,-0.187,179.566
2883.927521526,0.0117,-0.0171,1.0093,-0.72,-0.187,179.566
2884.027521616,0.0054,-0.0186,1.0098,-0.72,-0.181,179.566
2884.127521724,-0.0029,-0.0044,1.0088,-0.72,-0.181,179.566
2884.227521814,0.0151,-0.0093,1.0107,-0.725,-0.192,179.566
2884.327521829,0.0093,-0.0054,1.0107,-0.725,-0.192,179.566
2884.427521955,0.0068,-0.0039,1.0098,-0.725,-0.198,179.566
2884.527522062,0.0068,-0.0171,1.0103,-0.725,-0.198,179.566
2884.627522114,-0.0142,-0.0161,1.0098,-0.72,-0.192,179.566
2884.727522221,0.0054,-0.0239,1.0093,-0.72,-0.203,179.566
2884.827522235,0.0,-0.0078,1.0103,-0.72,-0.203,179.566
2884.927522305,0.0024,-0.0083,1.0098,-0.72,-0.203,179.566
2885.027522376,0.0117,-0.0181,1.0103,-0.72,-0.203,179.566
2885.127522446,-0.0005,-0.0039,1.0103,-0.72,-0.203,179.566
2885.227522553,0.0073,-0.0117,1.0103,-0.714,-0.203,179.566
2885.327522566,0.0059,-0.0142,1.0107,-0.714,-0.203,179.566
2885.427522635,-0.001,-0.0073,1.0103,-0.714,-0.203,179.566
2885.527522704,0.0088,-0.0142,1.0098,-0.714,-0.203,179.566
2885.627522736,0.0039,-0.0181,1.0093,-0.714,-0.209,179.566
2885.727522823,0.0005,-0.0078,1.0098,-0.714,-0.203,179.566
2885.82752291,0.0088,-0.0098,1.0098,-0.72,-0.214,179.566
2885.927522998,0.0083,-0.0112,1.0103,-0.714,-0.214,179.566
2886.02752303,0.0098,-0.0039,1.0098,-0.714,-0.214,179.566
2886.127523061,0.0122,-0.0083,1.0093,-0.709,-0.214,179.566
2886.227523093,0.0073,-0.0146,1.0103,-0.714,-0.214,179.566
2886.327523161,0.0034,-0.0088,1.0107,-0.714,-0.22,179.566
2886.427523191,0.0015,-0.0098,1.0112,-0.714,-0.214,179.566
2886.527523222,0.0044,-0.0098,1.0112,-0.709,-0.214,179.566
2886.627523289,-0.0015,-0.0015,1.0088,-0.709,-0.214,179.566
2886.727523375,0.0073,-0.0151,1.0093,-0.709,-0.214,179.566
2886.827523462,-0.0039,-0.0215,1.0098,-0.714,-0.214,179.566
2886.927523529,0.0015,-0.0176,1.0098,-0.714,-0.225,179.566
2887.027523615,0.0063,-0.0083,1.0103,-0.709,-0.225,179.566
2887.127523627,0.0063,-0.0024,1.0107,-0.709,-0.225,179.566
2887.227523658,0.0098,-0.0078,1.0107,-0.714,-0.225,179.566
2887.327523687,0.0088,-0.0088,1.0103,-0.714,-0.225,179.566
2887.42752379,0.0024,-0.0112,1.0093,-0.714,-0.225,179.566
2887.527523875,0.0034,-0.0215,1.0098,-0.714,-0.225,179.566
2887.627523923,0.002,-0.0112,1.0103,-0.709,-0.225,179.566
2887.727524008,0.0034,-0.0063,1.0107,-0.709,-0.231,179.566
2887.827524055,0.0098,-0.0156,1.0107,-0.714,-0.231,179.566
2887.927524103,0.002,-0.0063,1.0103,-0.709,-0.231,179.566
2888.027524132,0.0029,-0.0166,1.0098,-0.714,-0.231,179.566
2888.127524162,0.0005,-0.0137,1.0107,-0.714,-0.231,179.566
2888.227524265,0.0034,-0.0112,1.0098,-0.72,-0.231,179.566
2888.327524293,0.0029,-0.0122,1.0098,-0.72,-0.231,179.566
2888.427524358,0.0039,-0.0122,1.0103,-0.714,-0.231,179.566
2888.527524405,0.0039,-0.0132,1.0098,-0.714,-0.225,179.566
2888.627524433,0.0044,-0.0103,1.0107,-0.714,-0.225,179.566
2888.727524479,0.0059,-0.0107,1.0103,-0.714,-0.22,179.566
2888.827524544,0.002,-0.0132,1.0098,-0.714,-0.22,179.566
2888.927524591,0.0068,-0.0117,1.0103,-0.714,-0.22,179.566
2889.027524637,0.0063,-0.0127,1.0107,-0.714,-0.225,179.566
2889.127524647,0.002,-0.0098,1.0103,-0.714,-0.22,179.566
2889.22752473,0.0068,-0.0151,1.0103,-0.714,-0.22,179.566
2889.327524812,0.0024,-0.0122,1.0107,-0.709,-0.22,179.566
2889.427524821,0.0034,-0.0156,1.0107,-0.709,-0.22,179.566
2889.527524903,0.0005,-0.0103,1.0103,-0.709,-0.22,179.566
2889.627524911,0.0034,-0.0122,1.0098,-0.709,-0.22,179.566
2889.727524975,0.0073,-0.0112,1.0098,-0.703,-0.22,179.566
2889.827525001,0.0015,-0.0112,1.0088,-0.703,-0.225,179.566
2889.927525028,0.0,-0.0112,1.0098,-0.703,-0.22,179.566
2890.027525036,0.0034,-0.0156,1.0098,-0.703,-0.22,179.566
2890.127525082,0.0034,-0.0103,1.0098,-0.703,-0.22,179.566
2890.227525108,0.0034,-0.0117,1.0103,-0.703,-0.22,179.566
2890.327525208,0.0054,-0.0063,1.0107,-0.703,-0.225,179.566
2890.427525233,0.0029,-0.0068,1.0103,-0.703,-0.209,179.566
2890.527525296,0.0049,-0.0146,1.0103,-0.709,-0.209,179.566
2890.62752534,0.0059,-0.0176,1.0103,-0.714,-0.203,179.566
2890.727525384,-0.0039,-0.0186,1.0103,-0.714,-0.198,179.566
2890.827525409,-0.001,-0.0127,1.0093,-0.72,-0.198,179.566
2890.927525472,0.0034,-0.0059,1.0093,-0.72,-0.198,179.566
2891.027525553,0.0059,-0.0078,1.0107,-0.725,-0.203,179.566
2891.127525615,0.001,-0.0171,1.0098,-0.725,-0.203,179.566
2891.227525659,-0.0098,-0.0273,1.0078,-0.731,-0.198,179.566
2891.327525776,0.0093,-0.0078,1.0107,-0.725,-0.203,179.566
2891.427525893,0.0151,0.0024,1.0112,-0.725,-0.198,179.566
2891.527525898,-0.0049,-0.0078,1.0093,-0.731,-0.198,179.566
2891.627525997,-0.0068,-0.0259,1.0093,-0.731,-0.203,179.566
2891.727526021,0.0068,-0.0225,1.0098,-0.731,-0.203,179.566
2891.827526101,0.0049,-0.0151,1.0093,-0.731,-0.203,179.566
2891.92752618,-0.0103,-0.0083,1.0093,-0.725,-0.203,179.566
2892.027526279,0.0215,-0.0039,1.0103,-0.731,-0.209,179.566
2892.127526395,0.0073,-0.0166,1.0098,-0.731,-0.209,179.566
2892.227526401,-0.0049,-0.019,1.0098,-0.725,-0.203,179.566
2892.327526406,0.0034,-0.0059,1.0103,-0.725,-0.203,179.566
2892.427526484,0.0098,-0.0156,1.0098,-0.72,-0.209,179.566
2892.527526544,0.001,-0.0283,1.0093,-0.725,-0.203,179.566
2892.627526623,-0.0132,-0.0088,1.0093,-0.725,-0.198,179.566
2892.727526738,-0.0029,-0.0073,1.0098,-0.725,-0.203,179.566
2892.827526798,0.0093,-0.0122,1.0107,-0.725,-0.209,179.566
2892.927526821,0.0127,-0.02,1.0093,-0.731,-0.203,179.566
2893.027526844,0.0229,-0.0044,1.0107,-0.725,-0.209,179.566
2893.127526848,0.0,-0.0049,1.0093,-0.731,-0.203,179.572
2893.227526871,-0.0234,-0.0312,1.0103,-0.736,-0.192,179.566
2893.32752693,0.0103,-0.0234,1.0098,-0.736,-0.203,179.577
2893.427526952,0.021,-0.0039,1.0112,-0.725,-0.203,179.572
2893.527526992,-0.0005,-0.0034,1.0103,-0.725,-0.192,179.566
2893.627527088,-0.0083,-0.0083,1.0103,-0.725,-0.187,179.561
2893.727527109,0.0034,-0.0254,1.0103,-0.731,-0.192,179.561
2893.827527131,0.0156,-0.0215,1.0107,-0.731,-0.198,179.566
2893.927527171,-0.0117,-0.0083,1.0098,-0.731,-0.187,179.561
2894.027527211,0.0083,0.001,1.0107,-0.736,-0.198,179.566
2894.127527252,0.0093,-0.0098,1.0098,-0.736,-0.198,179.566
2894.227527255,0.0,-0.0293,1.0103,-0.742,-0.192,179.566
2894.327527257,0.0054,-0.0117,1.0103,-0.736,-0.192,179.566
2894.427527296,0.0083,-0.0054,1.0103,-0.731,-0.192,179.566
2894.527527298,0.0024,-0.0063,1.0103,-0.731,-0.187,179.566
2894.6275273,-0.0029,-0.0142,1.0098,-0.731,-0.187,179.566
2894.727527302,0.0049,-0.019,1.0103,-0.731,-0.192,179.566
2894.827527415,0.0039,-0.0181,1.0098,-0.731,-0.192,179.566
2894.927527472,0.0024,-0.0146,1.0093,-0.731,-0.192,179.566
2895.027527548,-0.0015,-0.0117,1.0083,-0.736,-0.187,179.566
2895.127527569,0.0137,-0.0078,1.0112,-0.736,-0.187,179.566
2895.227527607,0.0186,-0.0054,1.0103,-0.736,-0.192,179.566
2895.327527664,-0.0088,-0.0166,1.0107,-0.731,-0.192,179.566
2895.427527702,-0.0088,-0.0166,1.0107,-0.731,-0.192,179.566
2895.527527739,-0.0088,-0.0166,1.0107,-0.731,-0.192,179.566
2895.627527833,-0.0088,-0.0166,1.0107,-0.731,-0.192,179.566
2895.727527852,-0.0088,-0.0166,1.0107,-0.731,-0.192,179.566
2895.827527927,-0.0088,-0.0166,1.0107,-0.731,-0.192,179.566
2895.927528057,-0.0088,-0.0166,1.0107,-0.731,-0.192,179.566
2896.02752815,-0.0088,-0.0166,1.0107,-0.731,-0.192,179.566
2896.127528225,-0.0088,-0.0166,1.0107,-0.731,-0.192,179.566
2896.227528226,-0.0088,-0.0166,1.0107,-0.731,-0.192,179.566
2896.327528244,-0.0088,-0.0166,1.0107,-0.731,-0.192,179.566
2896.427528299,-0.0088,-0.0166,1.0107,-0.731,-0.192,179.566
2896.527528391,-0.0088,-0.0166,1.0107,-0.731,-0.192,179.566
2896.627528483,-0.0088,-0.0166,1.0107,-0.731,-0.192,179.566
2896.727528501,-0.0088,-0.0166,1.0107,-0.731,-0.192,179.566
2896.827528574,-0.0088,-0.0166,1.0107,-0.731,-0.192,179.566
2896.927528629,-0.0088,-0.0166,1.0107,-0.731,-0.192,179.566
2897.027528666,-0.0088,-0.0166,1.0107,-0.731,-0.192,179.566
2897.127528721,-0.0088,-0.0166,1.0107,-0.731,-0.192,179.566
2897.227528739,-0.0088,-0.0166,1.0107,-0.731,-0.192,179.566
2897.327528848,-0.0088,-0.0166,1.0107,-0.731,-0.192,179.566
2897.427528883,-0.0088,-0.0166,1.0107,-0.731,-0.192,179.566
2897.5275289,-0.0088,-0.0166,1.0107,-0.731,-0.192,179.566
2897.62752901,-0.0088,-0.0166,1.0107,-0.731,-0.192,179.566
2897.7275291,-0.0088,-0.0166,1.0107,-0.731,-0.192,179.566
2897.827529136,-0.0088,-0.0166,1.0107,-0.731,-0.192,179.566
2897.927529245,-0.0088,-0.0166,1.0107,-0.731,-0.192,179.566
2898.027529354,-0.0088,-0.0166,1.0107,-0.731,-0.192,179.566
2898.127529371,-0.0088,-0.0166,1.0107,-0.731,-0.192,179.566
2898.227529443,-0.0088,-0.0166,1.0107,-0.731,-0.192,179.566
2898.327529514,-0.0088,-0.0166,1.0107,-0.731,-0.192,179.566
2898.427529567,-0.0088,-0.0166,1.0107,-0.731,-0.192,179.566
2898.527529601,-0.0088,-0.0166,1.0107,-0.731,-0.192,179.566
2898.627529635,-0.0088,-0.0166,1.0107,-0.731,-0.192,179.566
2898.727529688,-0.0088,-0.0166,1.0107,-0.731,-0.192,179.566
2898.827529796,-0.0088,-0.0166,1.0107,-0.731,-0.192,179.566
2898.927529904,-0.0088,-0.0166,1.0107,-0.731,-0.192,179.566
2899.027529975,-0.0088,-0.0166,1.0107,-0.731,-0.192,179.566
2899.12752999,-0.0088,-0.0166,1.0107,-0.731,-0.192,179.566
2899.227530117,-0.0088,-0.0166,1.0107,-0.731,-0.192,179.566
2899.327530169,-0.0088,-0.0166,1.0107,-0.731,-0.192,179.566
2899.427530275,-0.0088,-0.0166,1.0107,-0.731,-0.192,179.566
2899.52753029,-0.0088,-0.0166,1.0107,-0.731,-0.192,179.566
2899.627530323,-0.0088,-0.0166,1.0107,-0.731,-0.192,179.566
2899.727530355,-0.0088,-0.0166,1.0107,-0.731,-0.192,179.566
2899.827530425,-0.0088,-0.0166,1.0107,-0.731,-0.192,179.566
2899.927530551,-0.0088,-0.0166,1.0107,-0.731,-0.192,179.566
2900.027530565,-0.0088,-0.0166,1.0107,-0.731,-0.192,179.566
2900.127530598,-0.0088,-0.0166,1.0107,-0.731,-0.192,179.566
2900.227530705,-0.0088,-0.0166,1.0107,-0.731,-0.192,179.566
2900.327530718,-0.0088,-0.0166,1.0107,-0.731,-0.192,179.566
2900.427530787,-0.0088,-0.0166,1.0107,-0.731,-0.192,179.566
2900.527530855,-0.0088,-0.0166,1.0107,-0.731,-0.192,179.566
2900.627530887,-0.0088,-0.0166,1.0107,-0.731,-0.192,179.566
2900.727530992,-0.0088,-0.0166,1.0107,-0.731,-0.192,179.566
2900.827531024,-0.0088,-0.0166,1.0107,-0.731,-0.192,179.566
2900.927531074,-0.0088,-0.0166,1.0107,-0.731,-0.192,179.566
2901.027531143,-0.0088,-0.0166,1.0107,-0.731,-0.192,179.566
2901.127531211,-0.0088,-0.0166,1.0107,-0.731,-0.192,179.566
2901.22753128,-0.0088,-0.0166,1.0107,-0.731,-0.192,179.566
2901.327531311,-0.0088,-0.0166,1.0107,-0.731,-0.192,179.566
2901.427531341,-0.0088,-0.0166,1.0107,-0.731,-0.192,179.566
2901.527531445,-0.0088,-0.0166,1.0107,-0.731,-0.192,179.566
2901.627531531,-0.0088,-0.0166,1.0107,-0.731,-0.192,179.566
2901.727531617,-0.0088,-0.0166,1.0107,-0.731,-0.192,179.566
2901.827531629,-0.0088,-0.0166,1.0107,-0.731,-0.192,179.566
2901.927531752,-0.0088,-0.0166,1.0107,-0.731,-0.192,179.566
2902.027531783,-0.0088,-0.0166,1.0107,-0.731,-0.192,179.566
2902.12753185,-0.0088,-0.0166,1.0107,-0.731,-0.192,179.566
2902.227531862,-0.0088,-0.0166,1.0107,-0.731,-0.192,179.566
2902.327531947,-0.0088,-0.0166,1.0107,-0.731,-0.192,179.566
2902.42753205,-0.0088,-0.0166,1.0107,-0.731,-0.192,179.566
2902.527532116,-0.0088,-0.0166,1.0107,-0.731,-0.192,179.566
2902.62753222,-0.0088,-0.0166,1.0107,-0.731,-0.192,179.566
2902.727532286,-0.0088,-0.0166,1.0107,-0.731,-0.192,179.566
2902.827532352,-0.0088,-0.0166,1.0107,-0.731,-0.192,179.566
2902.927532455,-0.0088,-0.0166,1.0107,-0.731,-0.192,179.566
2903.027532503,-0.0088,-0.0166,1.0107,-0.731,-0.192,179.566
2903.127532606,-0.0088,-0.0166,1.0107,-0.731,-0.192,179.566
2903.227532617,-0.0088,-0.0166,1.0107,-0.731,-0.192,179.566
2903.327532701,-0.0088,-0.0166,1.0107,-0.731,-0.192,179.566
2903.428015544,-0.0088,-0.0166,1.0107,-0.731,-0.192,179.566
2903.528015609,-0.0088,-0.0166,1.0107,-0.731,-0.192,179.566
2903.628015711,-0.0088,-0.0166,1.0107,-0.731,-0.192,179.566
2903.728015795,-0.0088,-0.0166,1.0107,-0.731,-0.192,179.566
2903.828015897,-0.0088,-0.0166,1.0107,-0.731,-0.192,179.566
2903.928015944,-0.0088,-0.0166,1.0107,-0.731,-0.192,179.566
2904.028016027,-0.0088,-0.0166,1.0107,-0.731,-0.192,179.566
2904.128016111,-0.0088,-0.0166,1.0107,-0.731,-0.192,179.566
2904.228016213,-0.0088,-0.0166,1.0107,-0.731,-0.192,179.566
2904.328016295,-0.0088,-0.0166,1.0107,-0.731,-0.192,179.566
2904.428016359,-0.0088,-0.0166,1.0107,-0.731,-0.192,179.566
2904.528016367,-0.0088,-0.0166,1.0107,-0.731,-0.192,179.566
2904.628016468,-0.0088,-0.0166,1.0107,-0.731,-0.192,179.566
2904.728016495,-0.0088,-0.0166,1.0107,-0.731,-0.192,179.566
2904.828016559,-0.0088,-0.0166,1.0107,-0.731,-0.192,179.566
2904.928016586,-0.0088,-0.0166,1.0107,-0.731,-0.192,179.566
2905.028016594,-0.0088,-0.0166,1.0107,-0.731,-0.192,179.566
2905.128016621,-0.0088,-0.0166,1.0107,-0.731,-0.192,179.566
2905.228016685,-0.0088,-0.0166,1.0107,-0.731,-0.192,179.566
2905.328016766,-0.0088,-0.0166,1.0107,-0.731,-0.192,179.566
2905.428016791,-0.0088,-0.0166,1.0107,-0.731,-0.192,179.566
2905.528016854,-0.0088,-0.0166,1.0107,-0.731,-0.192,179.566
2905.62801688,-0.0088,-0.0166,1.0107,-0.731,-0.192,179.566
2905.728016979,-0.0088,-0.0166,1.0107,-0.731,-0.192,179.566
2905.828017079,-0.0088,-0.0166,1.0107,-0.731,-0.192,179.566
2905.928017179,-0.0088,-0.0166,1.0107,-0.731,-0.192,179.566
2906.028017241,-0.0088,-0.0166,1.0107,-0.731,-0.192,179.566
2906.128017304,-0.0088,-0.0166,1.0107,-0.731,-0.192,179.566
2906.228017404,-0.0088,-0.0166,1.0107,-0.731,-0.192,179.566
2906.328017465,-0.0088,-0.0166,1.0107,-0.731,-0.192,179.566
2906.428017545,-0.0088,-0.0166,1.0107,-0.731,-0.192,179.566
2906.528017607,-0.0088,-0.0166,1.0107,-0.731,-0.192,179.566
2906.628017724,-0.0088,-0.0166,1.0107,-0.731,-0.192,179.566
2906.728017841,-0.0088,-0.0166,1.0107,-0.731,-0.192,179.566
2906.828017884,-0.0088,-0.0166,1.0107,-0.731,-0.192,179.566
2906.928017927,-0.0088,-0.0166,1.0107,-0.731,-0.192,179.566
2907.028017932,-0.0088,-0.0166,1.0107,-0.731,-0.192,179.566
2907.128018049,-0.0088,-0.0166,1.0107,-0.731,-0.192,179.566
2907.228018074,-0.0088,-0.0166,1.0107,-0.731,-0.192,179.566
2907.328018116,-0.0088,-0.0166,1.0107,-0.731,-0.192,179.566
2907.428018213,-0.0088,-0.0166,1.0107,-0.731,-0.192,179.566
2907.528018292,-0.0088,-0.0166,1.0107,-0.731,-0.192,179.566
2907.628018408,-0.0088,-0.0166,1.0107,-0.731,-0.192,179.566
2907.728018468,-0.0088,-0.0166,1.0107,-0.731,-0.192,179.566
2907.828018473,-0.0088,-0.0166,1.0107,-0.731,-0.192,179.566
2907.92802194,-0.0088,-0.0166,1.0107,-0.731,-0.192,179.566
2908.028021964,-0.0088,-0.0166,1.0107,-0.731,-0.192,179.566
2908.128022079,-0.0088,-0.0166,1.0107,-0.731,-0.192,179.566
2908.228022177,-0.0088,-0.0166,1.0107,-0.731,-0.192,179.566
2908.328022273,-0.0088,-0.0166,1.0107,-0.731,-0.192,179.566
2908.428022351,-0.0088,-0.0166,1.0107,-0.731,-0.192,179.566
2908.528022373,-0.0088,-0.0166,1.0107,-0.731,-0.192,179.566
2908.628022432,-0.0088,-0.0166,1.0107,-0.731,-0.192,179.566
2908.728022491,-0.0088,-0.0166,1.0107,-0.731,-0.192,179.566
2908.828022494,-0.0088,-0.0166,1.0107,-0.731,-0.192,179.566
2908.928022591,-0.0088,-0.0166,1.0107,-0.731,-0.192,179.566
2909.028026483,-0.0088,-0.0166,1.0107,-0.731,-0.192,179.566
2909.12802656,-0.0088,-0.0166,1.0107,-0.731,-0.192,179.566
2909.22802662,-0.0088,-0.0166,1.0107,-0.731,-0.192,179.566
2909.328026696,-0.0088,-0.0166,1.0107,-0.731,-0.192,179.566
2909.428026791,-0.0088,-0.0166,1.0107,-0.731,-0.192,179.566
2909.528028849,-0.0088,-0.0166,1.0107,-0.731,-0.192,179.566
2909.628028907,-0.0088,-0.0166,1.0107,-0.731,-0.192,179.566
2909.728028928,-0.0088,-0.0166,1.0107,-0.731,-0.192,179.566
2909.828028986,-0.0088,-0.0166,1.0107,-0.731,-0.192,179.566
2909.928029062,-0.0088,-0.0166,1.0107,-0.731,-0.192,179.566
2910.02803512,-0.0088,-0.0166,1.0107,-0.731,-0.192,179.566
2910.128035141,-0.0088,-0.0166,1.0107,-0.731,-0.192,179.566
2910.228035143,-0.0088,-0.0166,1.0107,-0.731,-0.192,179.566
2910.328037978,-0.0088,-0.0166,1.0107,-0.731,-0.192,179.566
2910.428038071,-0.0088,-0.0166,1.0107,-0.731,-0.192,179.566
2910.528038184,-0.0088,-0.0166,1.0107,-0.731,-0.192,179.566
2910.628038296,-0.0088,-0.0166,1.0107,-0.731,-0.192,179.566
2910.728038371,-0.0088,-0.0166,1.0107,-0.731,-0.192,179.566
2910.828038391,-0.0088,-0.0166,1.0107,-0.731,-0.192,179.566
2910.928038392,-0.0088,-0.0166,1.0107,-0.731,-0.192,179.566
2911.028047171,-0.0088,-0.0166,1.0107,-0.731,-0.192,179.566
2911.128047283,-0.0088,-0.0166,1.0107,-0.731,-0.192,179.566
2911.228047396,-0.0088,-0.0166,1.0107,-0.731,-0.192,179.566
2911.328047433,-0.0088,-0.0166,1.0107,-0.731,-0.192,179.566
2911.428047488,-0.0088,-0.0166,1.0107,-0.731,-0.192,179.566
2911.528047692,-0.0088,-0.0166,1.0107,-0.731,-0.192,179.566
2911.628047785,-0.0088,-0.0166,1.0107,-0.731,-0.192,179.566
2911.728047822,-0.0088,-0.0166,1.0107,-0.731,-0.192,179.566
2911.828047896,-0.0088,-0.0166,1.0107,-0.731,-0.192,179.566
2911.928047989,-0.0088,-0.0166,1.0107,-0.731,-0.192,179.566
2912.028048044,-0.0088,-0.0166,1.0107,-0.731,-0.192,179.566
2912.128048174,-0.0088,-0.0166,1.0107,-0.731,-0.192,179.566
2912.228048211,-0.0088,-0.0166,1.0107,-0.731,-0.192,179.566
2912.328048951,-0.0088,-0.0166,1.0107,-0.731,-0.192,179.566
2912.428049024,-0.0088,-0.0166,1.0107,-0.731,-0.192,179.566
2912.528049134,-0.0088,-0.0166,1.0107,-0.731,-0.192,179.566
2912.628049151,-0.0088,-0.0166,1.0107,-0.731,-0.192,179.566
2912.728049261,-0.0088,-0.0166,1.0107,-0.731,-0.192,179.566
2912.828049297,-0.0088,-0.0166,1.0107,-0.731,-0.192,179.566
2912.928049351,-0.0088,-0.0166,1.0107,-0.731,-0.192,179.566
2913.028049369,-0.0088,-0.0166,1.0107,-0.731,-0.192,179.566
2913.128049497,-0.0088,-0.0166,1.0107,-0.731,-0.192,179.566
2913.228049533,-0.0088,-0.0166,1.0107,-0.731,-0.192,179.566
2913.328049605,-0.0088,-0.0166,1.0107,-0.731,-0.192,179.566
2913.42804964,-0.0088,-0.0166,1.0107,-0.731,-0.192,179.566
2913.52804973,-0.0088,-0.0166,1.0107,-0.731,-0.192,179.566
2913.628049802,-0.0088,-0.0166,1.0107,-0.731,-0.192,179.566
2913.728054411,-0.0088,-0.0166,1.0107,-0.731,-0.192,179.566
2913.828054446,-0.0088,-0.0166,1.0107,-0.731,-0.192,179.566
2913.92805448,-0.0088,-0.0166,1.0107,-0.731,-0.192,179.566
2914.028054589,-0.0088,-0.0166,1.0107,-0.731,-0.192,179.566
2914.128054661,-0.0088,-0.0166,1.0107,-0.731,-0.192,179.566
2914.228054677,-0.0088,-0.0166,1.0107,-0.731,-0.192,179.566
2914.328054766,-0.0088,-0.0166,1.0107,-0.731,-0.192,179.566
2914.428059059,-0.0088,-0.0166,1.0107,-0.731,-0.192,179.566
2914.528059167,-0.0088,-0.0166,1.0107,-0.731,-0.192,179.566
2914.628059275,-0.0088,-0.0166,1.0107,-0.731,-0.192,179.566
2914.72805929,-0.0088,-0.0166,1.0107,-0.731,-0.192,179.566
2914.828059323,-0.0088,-0.0166,1.0107,-0.731,-0.192,179.566
2914.928059412,-0.0088,-0.0166,1.0107,-0.731,-0.192,179.566
2915.028059539,-0.0088,-0.0166,1.0107,-0.731,-0.192,179.566
2915.128059628,-0.0088,-0.0166,1.0107,-0.731,-0.192,179.566
2915.228059698,-0.0088,-0.0166,1.0107,-0.731,-0.192,179.566
2915.328059712,-0.0088,-0.0166,1.0107,-0.731,-0.192,179.566
2915.428059838,-0.0088,-0.0166,1.0107,-0.731,-0.192,179.566
2915.52806024,-0.0088,-0.0166,1.0107,-0.731,-0.192,179.566
2915.628065273,-0.0088,-0.0166,1.0107,-0.731,-0.192,179.566
2915.728065398,-0.0088,-0.0166,1.0107,-0.731,-0.192,179.566
2915.828065504,-0.0088,-0.0166,1.0107,-0.731,-0.192,179.566
2915.928065518,-0.0088,-0.0166,1.0107,-0.731,-0.192,179.566
2916.028065569,-0.0088,-0.0166,1.0107,-0.731,-0.192,179.566
2916.128065602,-0.0088,-0.0166,1.0107,-0.731,-0.192,179.566
2916.228065727,-0.0088,-0.0166,1.0107,-0.731,-0.192,179.566
2916.328065814,-0.0088,-0.0166,1.0107,-0.731,-0.192,179.566
2916.428065938,-0.0088,-0.0166,1.0107,-0.731,-0.192,179.566
2916.528065969,-0.0088,-0.0166,1.0107,-0.731,-0.192,179.566
2916.628066056,-0.0088,-0.0166,1.0107,-0.731,-0.192,179.566
2916.728066143,-0.0088,-0.0166,1.0107,-0.731,-0.192,179.566
2916.828066193,-0.0088,-0.0166,1.0107,-0.731,-0.192,179.566
2916.928066205,-0.0088,-0.0166,1.0107,-0.731,-0.192,179.566
2917.028066237,-0.0088,-0.0166,1.0107,-0.731,-0.192,179.566
2917.128066268,-0.0088,-0.0166,1.0107,-0.731,-0.192,179.566
2917.228066392,-0.0088,-0.0166,1.0107,-0.731,-0.192,179.566
2917.328071256,-0.0088,-0.0166,1.0107,-0.731,-0.192,179.566
2917.428071286,-0.0088,-0.0166,1.0107,-0.731,-0.192,179.566
2917.52807139,-0.0088,-0.0166,1.0107,-0.731,-0.192,179.566
2917.628075364,-0.0088,-0.0166,1.0107,-0.731,-0.192,179.566
2917.728075376,-0.0088,-0.0166,1.0107,-0.731,-0.192,179.566
2917.828075406,-0.0088,-0.0166,1.0107,-0.731,-0.192,179.566
2917.928075418,-0.0088,-0.0166,1.0107,-0.731,-0.192,179.566
2918.028082744,-0.0088,-0.0166,1.0107,-0.731,-0.192,179.566
2918.128082849,-0.0088,-0.0166,1.0107,-0.731,-0.192,179.566
2918.228082916,-0.0088,-0.0166,1.0107,-0.731,-0.192,179.566
2918.328082926,-0.0088,-0.0166,1.0107,-0.731,-0.192,179.566
2918.428082993,-0.0088,-0.0166,1.0107,-0.731,-0.192,179.566
2918.528083559,-0.0088,-0.0166,1.0107,-0.731,-0.192,179.566
2918.628083643,-0.0088,-0.0166,1.0107,-0.731,-0.192,179.566
2918.728083672,-0.0088,-0.0166,1.0107,-0.731,-0.192,179.566
2918.828083757,-0.0088,-0.0166,1.0107,-0.731,-0.192,179.566
2918.928083842,-0.0088,-0.0166,1.0107,-0.731,-0.192,179.566
2919.028083852,-0.0088,-0.0166,1.0107,-0.731,-0.192,179.566
2919.128084029,-0.0088,-0.0166,1.0107,-0.731,-0.192,179.566
2919.228084114,-0.0088,-0.0166,1.0107,-0.731,-0.192,179.566
2919.328084142,-0.0088,-0.0166,1.0107,-0.731,-0.192,179.566
2919.428084244,-0.0088,-0.0166,1.0107,-0.731,-0.192,179.566
2919.528084364,-0.0088,-0.0166,1.0107,-0.731,-0.192,179.566
2919.628084448,-0.0088,-0.0166,1.0107,-0.731,-0.192,179.566
2919.728084513,-0.0088,-0.0166,1.0107,-0.731,-0.192,179.566
2919.828084559,-0.0088,-0.0166,1.0107,-0.731,-0.192,179.566
2919.928084624,-0.0088,-0.0166,1.0107,-0.731,-0.192,179.566
2920.028084708,-0.0088,-0.0166,1.0107,-0.731,-0.192,179.566
2920.128084773,-0.0088,-0.0166,1.0107,-0.731,-0.192,179.566
2920.228084838,-0.0088,-0.0166,1.0107,-0.731,-0.192,179.566
2920.328084939,-0.0088,-0.0166,1.0107,-0.731,-0.192,179.566
2920.42808504,-0.0088,-0.0166,1.0107,-0.731,-0.192,179.566
2920.528085141,-0.0088,-0.0166,1.0107,-0.731,-0.192,179.566
2920.628091686,-0.0088,-0.0166,1.0107,-0.731,-0.192,179.566
2920.728091787,-0.0088,-0.0166,1.0107,-0.731,-0.192,179.566
2920.828091832,-0.0088,-0.0166,1.0107,-0.731,-0.192,179.566
2920.928091896,-0.0088,-0.0166,1.0107,-0.731,-0.192,179.566
2921.02809196,-0.0088,-0.0166,1.0107,-0.731,-0.192,179.566
2921.128092005,-0.0088,-0.0166,1.0107,-0.731,-0.192,179.566
2921.228093532,-0.0088,-0.0166,1.0107,-0.731,-0.192,179.566
2921.328093539,-0.0088,-0.0166,1.0107,-0.731,-0.192,179.566
2921.42809362,-0.0088,-0.0166,1.0107,-0.731,-0.192,179.566
2921.528099312,-0.0088,-0.0166,1.0107,-0.731,-0.192,179.566
2921.628099338,-0.0088,-0.0166,1.0107,-0.731,-0.192,179.566
2921.728099345,-0.0088,-0.0166,1.0107,-0.731,-0.192,179.566
2921.82809939,-0.0088,-0.0166,1.0107,-0.731,-0.192,179.566
2921.928099434,-0.0088,-0.0166,1.0107,-0.731,-0.192,179.566
2922.028106404,-0.0088,-0.0166,1.0107,-0.731,-0.192,179.566
2922.128106485,-0.0088,-0.0166,1.0107,-0.731,-0.192,179.566
2922.228107696,-0.0088,-0.0166,1.0107,-0.731,-0.192,179.566
2922.328107739,-0.0088,-0.0166,1.0107,-0.731,-0.192,179.566
2922.428107782,-0.0088,-0.0166,1.0107,-0.731,-0.192,179.566
2922.528107862,-0.0088,-0.0166,1.0107,-0.731,-0.192,179.566
2922.628107868,-0.0088,-0.0166,1.0107,-0.731,-0.192,179.566
2922.728107911,-0.0088,-0.0166,1.0107,-0.731,-0.192,179.566
2922.828107955,-0.0088,-0.0166,1.0107,-0.731,-0.192,179.566
2922.928110164,-0.0088,-0.0166,1.0107,-0.731,-0.192,179.566
2923.028110244,-0.0088,-0.0166,1.0107,-0.731,-0.192,179.566
2923.128110269,-0.0088,-0.0166,1.0107,-0.731,-0.192,179.566
2923.228110349,-0.0088,-0.0166,1.0107,-0.731,-0.192,179.566
2923.328117409,-0.0088,-0.0166,1.0107,-0.731,-0.192,179.566
2923.428117414,-0.0088,-0.0166,1.0107,-0.731,-0.192,179.566
2923.528117493,-0.0088,-0.0166,1.0107,-0.731,-0.192,179.566
2923.628117572,-0.0088,-0.0166,1.0107,-0.731,-0.192,179.566
2923.728117651,-0.0088,-0.0166,1.0107,-0.731,-0.192,179.566
2923.828117768,-0.0088,-0.0166,1.0107,-0.731,-0.192,179.566
2923.928117791,-0.0088,-0.0166,1.0107,-0.731,-0.192,179.566
2924.028117796,-0.0088,-0.0166,1.0107,-0.731,-0.192,179.566
2924.128117838,-0.0088,-0.0166,1.0107,-0.731,-0.192,179.566
2924.228117954,-0.0088,-0.0166,1.0107,-0.731,-0.192,179.566
2924.328117958,-0.0088,-0.0166,1.0107,-0.731,-0.192,179.566
2924.428117962,-0.0088,-0.0166,1.0107,-0.731,-0.192,179.566
2924.528118021,-0.0088,-0.0166,1.0107,-0.731,-0.192,179.566
2924.628118044,-0.0088,-0.0166,1.0107,-0.731,-0.192,179.566
2924.728118159,-0.0088,-0.0166,1.0107,-0.731,-0.192,179.566
2924.828118218,-0.0088,-0.0166,1.0107,-0.731,-0.192,179.566
2924.928118222,-0.0088,-0.0166,1.0107,-0.731,-0.192,179.566
2925.028118263,-0.0088,-0.0166,1.0107,-0.731,-0.192,179.566
2925.128118267,-0.0088,-0.0166,1.0107,-0.731,-0.192,179.566
2925.228118363,-0.0088,-0.0166,1.0107,-0.731,-0.192,179.566
2925.328118421,-0.0088,-0.0166,1.0107,-0.731,-0.192,179.566
2925.428118517,-0.0088,-0.0166,1.0107,-0.731,-0.192,179.566
2925.52811852,-0.0088,-0.0166,1.0107,-0.731,-0.192,179.566
2925.628118615,-0.0088,-0.0166,1.0107,-0.731,-0.192,179.566
2925.72811871,-0.0088,-0.0166,1.0107,-0.731,-0.192,179.566
2925.828118787,-0.0088,-0.0166,1.0107,-0.731,-0.192,179.566
2925.92811879,-0.0088,-0.0166,1.0107,-0.731,-0.192,179.566
2926.028118867,-0.0088,-0.0166,1.0107,-0.731,-0.192,179.566
2926.128124591,-0.0088,-0.0166,1.0107,-0.731,-0.192,179.566
2926.228124631,-0.0088,-0.0166,1.0107,-0.731,-0.192,179.566
2926.328124651,-0.0088,-0.0166,1.0107,-0.731,-0.192,179.566
2926.428124764,-0.0088,-0.0166,1.0107,-0.731,-0.192,179.566
2926.52812484,-0.0088,-0.0166,1.0107,-0.731,-0.192,179.566
2926.628124897,-0.0088,-0.0166,1.0107,-0.731,-0.192,179.566
2926.728124899,-0.0088,-0.0166,1.0107,-0.731,-0.192,179.566
2926.828124975,-0.0088,-0.0166,1.0107,-0.731,-0.192,179.566
2926.928125087,-0.0088,-0.0166,1.0107,-0.731,-0.192,179.566
2927.028125182,-0.0088,-0.0166,1.0107,-0.731,-0.192,179.566
2927.128125239,-0.0088,-0.0166,1.0107,-0.731,-0.192,179.566
2927.228125315,-0.0088,-0.0166,1.0107,-0.731,-0.192,179.566
2927.328125445,-0.0088,-0.0166,1.0107,-0.731,-0.192,179.566
2927.428125519,-0.0088,-0.0166,1.0107,-0.731,-0.192,179.566
2927.528125539,-0.0088,-0.0166,1.0107,-0.731,-0.192,179.566
2927.628125632,-0.0088,-0.0166,1.0107,-0.731,-0.192,179.566
2927.728125651,-0.0088,-0.0166,1.0107,-0.731,-0.192,179.566
2927.828125707,-0.0088,-0.0166,1.0107,-0.731,-0.192,179.566
2927.928125707,-0.0088,-0.0166,1.0107,-0.731,-0.192,179.566
2928.028125819,-0.0088,-0.0166,1.0107,-0.731,-0.192,179.566
2928.128125912,-0.0088,-0.0166,1.0107,-0.731,-0.192,179.566
2928.228125987,-0.0088,-0.0166,1.0107,-0.731,-0.192,179.566
2928.328129431,-0.0088,-0.0166,1.0107,-0.731,-0.192,179.566
2928.428129541,-0.0088,-0.0166,1.0107,-0.731,-0.192,179.566
2928.528136818,-0.0088,-0.0166,1.0107,-0.731,-0.192,179.566
2928.628143355,-0.0088,-0.0166,1.0107,-0.731,-0.192,179.566
2928.728143373,-0.0088,-0.0166,1.0107,-0.731,-0.192,179.566
2928.828143409,-0.0088,-0.0166,1.0107,-0.731,-0.192,179.566
2928.928143501,-0.0088,-0.0166,1.0107,-0.731,-0.192,179.566
2929.028144927,-0.0088,-0.0166,1.0107,-0.731,-0.192,179.566
2929.128145056,-0.0088,-0.0166,1.0107,-0.731,-0.192,179.566
2929.228145074,-0.0088,-0.0166,1.0107,-0.731,-0.192,179.566
2929.328150202,-0.0088,-0.0166,1.0107,-0.731,-0.192,179.566
2929.428150274,-0.0088,-0.0166,1.0107,-0.731,-0.192,179.566
2929.528150328,-0.0088,-0.0166,1.0107,-0.731,-0.192,179.566
2929.628150438,-0.0088,-0.0166,1.0107,-0.731,-0.192,179.566
2929.728150547,-0.0088,-0.0166,1.0107,-0.731,-0.192,179.566
2929.82815062,-0.0088,-0.0166,1.0107,-0.731,-0.192,179.566
2929.928157692,-0.0088,-0.0166,1.0107,-0.731,-0.192,179.566
2930.02815982,-0.0088,-0.0166,1.0107,-0.731,-0.192,179.566
2930.128159874,-0.0088,-0.0166,1.0107,-0.731,-0.192,179.566
2930.228159891,-0.0088,-0.0166,1.0107,-0.731,-0.192,179.566
2930.328159962,-0.0088,-0.0166,1.0107,-0.731,-0.192,179.566
2930.428164663,-0.0088,-0.0166,1.0107,-0.731,-0.192,179.566
2930.528164697,-0.0088,-0.0166,1.0107,-0.731,-0.192,179.566
2930.628164769,-0.0088,-0.0166,1.0107,-0.731,-0.192,179.566
2930.728164785,-0.0088,-0.0166,1.0107,-0.731,-0.192,179.566
2930.828164819,-0.0088,-0.0166,1.0107,-0.731,-0.192,179.566
2930.928169094,-0.0088,-0.0166,1.0107,-0.731,-0.192,179.566
2931.028171647,-0.0088,-0.0166,1.0107,-0.731,-0.192,179.566
2931.128176273,-0.0088,-0.0166,1.0107,-0.731,-0.192,179.566
2931.2281764,-0.0088,-0.0166,1.0107,-0.731,-0.192,179.566
2931.328176508,-0.0088,-0.0166,1.0107,-0.731,-0.192,179.566
2931.428176634,-0.0088,-0.0166,1.0107,-0.731,-0.192,179.566
2931.528176648,-0.0088,-0.0166,1.0107,-0.731,-0.192,179.566
2931.628176682,-0.0088,-0.0166,1.0107,-0.731,-0.192,179.566
2931.728176696,-0.0088,-0.0166,1.0107,-0.731,-0.192,179.566
2931.828179156,-0.0088,-0.0166,1.0107,-0.731,-0.192,179.566
2931.92817917,-0.0088,-0.0166,1.0107,-0.731,-0.192,179.566
2932.028179222,-0.0088,-0.0166,1.0107,-0.731,-0.192,179.566
2932.128179237,-0.0088,-0.0166,1.0107,-0.731,-0.192,179.566
2932.228179307,-0.0088,-0.0166,1.0107,-0.731,-0.192,179.566
2932.328180895,-0.0088,-0.0166,1.0107,-0.731,-0.192,179.566
2932.428180946,-0.0088,-0.0166,1.0107,-0.731,-0.192,179.566
2932.528181033,-0.0088,-0.0166,1.0107,-0.731,-0.192,179.566
2932.628181158,-0.0088,-0.0166,1.0107,-0.731,-0.192,179.566
2932.728181265,-0.0088,-0.0166,1.0107,-0.731,-0.192,179.566
2932.828181334,-0.0088,-0.0166,1.0107,-0.731,-0.192,179.566
2932.928186829,-0.0088,-0.0166,1.0107,-0.731,-0.192,179.566
2933.028193453,-0.0088,-0.0166,1.0107,-0.731,-0.192,179.566
2933.128193504,-0.0088,-0.0166,1.0107,-0.731,-0.192,179.566
2933.228193592,-0.0088,-0.0166,1.0107,-0.731,-0.192,179.566
2933.328193679,-0.0088,-0.0166,1.0107,-0.731,-0.192,179.566
2933.42819371,-0.0088,-0.0166,1.0107,-0.731,-0.192,179.566
2933.528193722,-0.0088,-0.0166,1.0107,-0.731,-0.192,179.566
2933.628193809,-0.0088,-0.0166,1.0107,-0.731,-0.192,179.566
2933.728193914,-0.0088,-0.0166,1.0107,-0.731,-0.192,179.566
2933.828202538,-0.0088,-0.0166,1.0107,-0.731,-0.192,179.566
2933.928202661,-0.0088,-0.0166,1.0107,-0.731,-0.192,179.566
2934.028202767,-0.0088,-0.0166,1.0107,-0.731,-0.192,179.566
2934.128202853,-0.0088,-0.0166,1.0107,-0.731,-0.192,179.566
2934.228202958,-0.0088,-0.0166,1.0107,-0.731,-0.192,179.566
2934.328203007,-0.0088,-0.0166,1.0107,-0.731,-0.192,179.566
2934.428203111,-0.0088,-0.0166,1.0107,-0.731,-0.192,179.566
2934.528203178,-0.0088,-0.0166,1.0107,-0.731,-0.192,179.566
2934.628203227,-0.0088,-0.0166,1.0107,-0.731,-0.192,179.566
2934.728203313,-0.0088,-0.0166,1.0107,-0.731,-0.192,179.566
2934.828203324,-0.0088,-0.0166,1.0107,-0.731,-0.192,179.566
2934.928203354,-0.0088,-0.0166,1.0107,-0.731,-0.192,179.566
2935.028203421,-0.0088,-0.0166,1.0107,-0.731,-0.192,179.566
2935.128203452,-0.0088,-0.0166,1.0107,-0.731,-0.192,179.566
2935.22820513,-0.0088,-0.0166,1.0107,-0.731,-0.192,179.566
2935.328205233,-0.0088,-0.0166,1.0107,-0.731,-0.192,179.566
2935.428205243,-0.0088,-0.0166,1.0107,-0.731,-0.192,179.566
2935.528208643,-0.0088,-0.0166,1.0107,-0.731,-0.192,179.566
2935.628208764,-0.0088,-0.0166,1.0107,-0.731,-0.192,179.566
2935.72820883,-0.0088,-0.0166,1.0107,-0.731,-0.192,179.566
2935.828208841,-0.0088,-0.0166,1.0107,-0.731,-0.192,179.566
2935.928208888,-0.0088,-0.0166,1.0107,-0.731,-0.192,179.566
2936.028208991,-0.0088,-0.0166,1.0107,-0.731,-0.192,179.566
2936.128209113,-0.0088,-0.0166,1.0107,-0.731,-0.192,179.566
2936.228209161,-0.0088,-0.0166,1.0107,-0.731,-0.192,179.566
2936.328209244,-0.0088,-0.0166,1.0107,-0.731,-0.192,179.566
2936.428209309,-0.0088,-0.0166,1.0107,-0.731,-0.192,179.566
2936.528209337,-0.0088,-0.0166,1.0107,-0.731,-0.192,179.566
2936.628211087,-0.0088,-0.0166,1.0107,-0.731,-0.192,179.566
2936.728211189,-0.0088,-0.0166,1.0107,-0.731,-0.192,179.566
2936.828211254,-0.0088,-0.0166,1.0107,-0.731,-0.192,179.566
2936.928211375,-0.0088,-0.0166,1.0107,-0.731,-0.192,179.566
2937.028214755,-0.0088,-0.0166,1.0107,-0.731,-0.192,179.566
2937.128214764,-0.0088,-0.0166,1.0107,-0.731,-0.192,179.566
2937.228214792,-0.0088,-0.0166,1.0107,-0.731,-0.192,179.566
2937.328214912,-0.0088,-0.0166,1.0107,-0.731,-0.192,179.566
2937.428215013,-0.0088,-0.0166,1.0107,-0.731,-0.192,179.566
2937.528215095,-0.0088,-0.0166,1.0107,-0.731,-0.192,179.566
2937.628215215,-0.0088,-0.0166,1.0107,-0.731,-0.192,179.566
2937.728215315,-0.0088,-0.0166,1.0107,-0.731,-0.192,179.566
2937.828215342,-0.0088,-0.0166,1.0107,-0.731,-0.192,179.566
2937.928215406,-0.0088,-0.0166,1.0107,-0.731,-0.192,179.566
2938.028215415,-0.0088,-0.0166,1.0107,-0.731,-0.192,179.566
2938.128215534,-0.0088,-0.0166,1.0107,-0.731,-0.192,179.566
2938.22821558,-0.0088,-0.0166,1.0107,-0.731,-0.192,179.566
2938.328215624,-0.0088,-0.0166,1.0107,-0.731,-0.192,179.566
2938.428215632,-0.0088,-0.0166,1.0107,-0.731,-0.192,179.566
2938.528215713,-0.0088,-0.0166,1.0107,-0.731,-0.192,179.566
2938.628215739,-0.0088,-0.0166,1.0107,-0.731,-0.192,179.566
2938.728215783,-0.0088,-0.0166,1.0107,-0.731,-0.192,179.566
2938.828215902,-0.0088,-0.0166,1.0107,-0.731,-0.192,179.566
2938.928215965,-0.0088,-0.0166,1.0107,-0.731,-0.192,179.566
2939.028216027,-0.0088,-0.0166,1.0107,-0.731,-0.192,179.566
2939.128216146,-0.0088,-0.0166,1.0107,-0.731,-0.192,179.566
2939.228216172,-0.0088,-0.0166,1.0107,-0.731,-0.192,179.566
2939.328216252,-0.0088,-0.0166,1.0107,-0.731,-0.192,179.566
2939.428216351,-0.0088,-0.0166,1.0107,-0.731,-0.192,179.566
2939.528216413,-0.0088,-0.0166,1.0107,-0.731,-0.192,179.566
2939.628216456,-0.0088,-0.0166,1.0107,-0.731,-0.192,179.566
2939.728216537,-0.0088,-0.0166,1.0107,-0.731,-0.192,179.566
2939.828216562,-0.0088,-0.0166,1.0107,-0.731,-0.192,179.566
2939.928216642,-0.0088,-0.0166,1.0107,-0.731,-0.192,179.566
2940.028216722,-0.0088,-0.0166,1.0107,-0.731,-0.192,179.566
2940.128216747,-0.0088,-0.0166,1.0107,-0.731,-0.192,179.566
2940.228216754,-0.0088,-0.0166,1.0107,-0.731,-0.192,179.566
2940.328216851,-0.0088,-0.0166,1.0107,-0.731,-0.192,179.566
2940.428216857,-0.0088,-0.0166,1.0107,-0.731,-0.192,179.566
2940.528216899,-0.0088,-0.0166,1.0107,-0.731,-0.192,179.566
2940.628216904,-0.0088,-0.0166,1.0107,-0.731,-0.192,179.566
2940.728216947,-0.0088,-0.0166,1.0107,-0.731,-0.192,179.566
2940.828217007,-0.0088,-0.0166,1.0107,-0.731,-0.192,179.566
2940.928217068,-0.0088,-0.0166,1.0107,-0.731,-0.192,179.566
2941.028217092,-0.0088,-0.0166,1.0107,-0.731,-0.192,179.566
2941.128217134,-0.0088,-0.0166,1.0107,-0.731,-0.192,179.566
2941.228217251,-0.0088,-0.0166,1.0107,-0.731,-0.192,179.566
2941.328217329,-0.0088,-0.0166,1.0107,-0.731,-0.192,179.566
2941.428217407,-0.0088,-0.0166,1.0107,-0.731,-0.192,179.566
2941.528217504,-0.0088,-0.0166,1.0107,-0.731,-0.192,179.566
2941.628217509,-0.0088,-0.0166,1.0107,-0.731,-0.192,179.566
2941.728217587,-0.0088,-0.0166,1.0107,-0.731,-0.192,179.566
2941.828217684,-0.0088,-0.0166,1.0107,-0.731,-0.192,179.566
2941.928217799,-0.0088,-0.0166,1.0107,-0.731,-0.192,179.566
2942.028217803,-0.0088,-0.0166,1.0107,-0.731,-0.192,179.566
2942.128217808,-0.0088,-0.0166,1.0107,-0.731,-0.192,179.566
2942.228217904,-0.0088,-0.0166,1.0107,-0.731,-0.192,179.566
2942.328217963,-0.0088,-0.0166,1.0107,-0.731,-0.192,179.566
2942.428218003,-0.0088,-0.0166,1.0107,-0.731,-0.192,179.566
2942.528218044,-0.0088,-0.0166,1.0107,-0.731,-0.192,179.566
2942.628218139,-0.0088,-0.0166,1.0107,-0.731,-0.192,179.566
2942.728218198,-0.0088,-0.0166,1.0107,-0.731,-0.192,179.566
2942.828218257,-0.0088,-0.0166,1.0107,-0.731,-0.192,179.566
2942.928218297,-0.0088,-0.0166,1.0107,-0.731,-0.192,179.566
2943.028218393,-0.0088,-0.0166,1.0107,-0.731,-0.192,179.566
2943.12821847,-0.0088,-0.0166,1.0107,-0.731,-0.192,179.566
2943.228218492,-0.0088,-0.0166,1.0107,-0.731,-0.192,179.566
2943.32821855,-0.0088,-0.0166,1.0107,-0.731,-0.192,179.566
2943.428218571,-0.0088,-0.0166,1.0107,-0.731,-0.192,179.566
2943.528218573,-0.0088,-0.0166,1.0107,-0.731,-0.192,179.566
2943.628218649,-0.0088,-0.0166,1.0107,-0.731,-0.192,179.566
2943.728218688,-0.0088,-0.0166,1.0107,-0.731,-0.192,179.566
2943.828218764,-0.0088,-0.0166,1.0107,-0.731,-0.192,179.566
2943.928218841,-0.0088,-0.0166,1.0107,-0.731,-0.192,179.566
2944.028218936,-0.0088,-0.0166,1.0107,-0.731,-0.192,179.566
2944.12821903,-0.0088,-0.0166,1.0107,-0.731,-0.192,179.566
2944.228219069,-0.0088,-0.0166,1.0107,-0.731,-0.192,179.566
2944.328219163,-0.0088,-0.0166,1.0107,-0.731,-0.192,179.566
2944.428219276,-0.0088,-0.0166,1.0107,-0.731,-0.192,179.566
2944.528219314,-0.0088,-0.0166,1.0107,-0.731,-0.192,179.566
2944.628219371,-0.0088,-0.0166,1.0107,-0.731,-0.192,179.566
2944.728219372,-0.0088,-0.0166,1.0107,-0.731,-0.192,179.566
2944.828219391,-0.0088,-0.0166,1.0107,-0.731,-0.192,179.566
2944.928219467,-0.0088,-0.0166,1.0107,-0.731,-0.192,179.566
2945.028219505,-0.0088,-0.0166,1.0107,-0.731,-0.192,179.566
2945.128219543,-0.0088,-0.0166,1.0107,-0.731,-0.192,179.566
2945.228219544,-0.0088,-0.0166,1.0107,-0.731,-0.192,179.566
2945.328219563,-0.0088,-0.0166,1.0107,-0.731,-0.192,179.566
2945.428219656,-0.0088,-0.0166,1.0107,-0.731,-0.192,179.566
2945.52821973,-0.0088,-0.0166,1.0107,-0.731,-0.192,179.566
2945.628219804,-0.0088,-0.0166,1.0107,-0.731,-0.192,179.566
2945.728219804,-0.0088,-0.0166,1.0107,-0.731,-0.192,179.566
2945.828219823,-0.0088,-0.0166,1.0107,-0.731,-0.192,179.566
2945.928219842,-0.0088,-0.0166,1.0107,-0.731,-0.192,179.566
2946.028219971,-0.0088,-0.0166,1.0107,-0.731,-0.192,179.566
2946.128220027,-0.0088,-0.0166,1.0107,-0.731,-0.192,179.566
2946.228220157,-0.0088,-0.0166,1.0107,-0.731,-0.192,179.566
2946.328220212,-0.0088,-0.0166,1.0107,-0.731,-0.192,179.566
2946.428220285,-0.0088,-0.0166,1.0107,-0.731,-0.192,179.566
2946.528220339,-0.0088,-0.0166,1.0107,-0.731,-0.192,179.566
2946.62822045,-0.0088,-0.0166,1.0107,-0.731,-0.192,179.566
2946.728220541,-0.0088,-0.0166,1.0107,-0.731,-0.192,179.566
2946.828220615,-0.0088,-0.0166,1.0107,-0.731,-0.192,179.566
2946.928220632,-0.0088,-0.0166,1.0107,-0.731,-0.192,179.566
2947.028220668,-0.0088,-0.0166,1.0107,-0.731,-0.192,179.566
2947.128220705,-0.0088,-0.0166,1.0107,-0.731,-0.192,179.566
2947.228220722,-0.0088,-0.0166,1.0107,-0.731,-0.192,179.566
2947.328220757,-0.0088,-0.0166,1.0107,-0.731,-0.192,179.566
2947.42822083,-0.0088,-0.0166,1.0107,-0.731,-0.192,179.566
2947.528220939,-0.0088,-0.0166,1.0107,-0.731,-0.192,179.566
2947.628220956,-0.0088,-0.0166,1.0107,-0.731,-0.192,179.566
2947.728221065,-0.0088,-0.0166,1.0107,-0.731,-0.192,179.566
2947.8282211,-0.0088,-0.0166,1.0107,-0.731,-0.192,179.566
2947.928221228,-0.0088,-0.0166,1.0107,-0.731,-0.192,179.566
2948.0282213,-0.0088,-0.0166,1.0107,-0.731,-0.192,179.566
2948.128221317,-0.0088,-0.0166,1.0107,-0.731,-0.192,179.566
2948.228221389,-0.0088,-0.0166,1.0107,-0.731,-0.192,179.566
2948.328221423,-0.0088,-0.0166,1.0107,-0.731,-0.192,179.566
2948.428221476,-0.0088,-0.0166,1.0107,-0.731,-0.192,179.566
2948.52822151,-0.0088,-0.0166,1.0107,-0.731,-0.192,179.566
2948.628221562,-0.0088,-0.0166,1.0107,-0.731,-0.192,179.566
2948.728221689,-0.0088,-0.0166,1.0107,-0.731,-0.192,179.566
2948.82822176,-0.0088,-0.0166,1.0107,-0.731,-0.192,179.566
2948.928221887,-0.0088,-0.0166,1.0107,-0.731,-0.192,179.566
2949.028221921,-0.0088,-0.0166,1.0107,-0.731,-0.192,179.566
2949.128222029,-0.0088,-0.0166,1.0107,-0.731,-0.192,179.566
2949.228222045,-0.0088,-0.0166,1.0107,-0.731,-0.192,179.566
2949.32822206,-0.0088,-0.0166,1.0107,-0.731,-0.192,179.566
2949.428222167,-0.0088,-0.0166,1.0107,-0.731,-0.192,179.566
2949.528222293,-0.0088,-0.0166,1.0107,-0.731,-0.192,179.566
2949.628222419,-0.0088,-0.0166,1.0107,-0.731,-0.192,179.566
2949.728222507,-0.0088,-0.0166,1.0107,-0.731,-0.192,179.566
2949.828222614,-0.0088,-0.0166,1.0107,-0.731,-0.192,179.566
2949.928222722,-0.0088,-0.0166,1.0107,-0.731,-0.192,179.566
2950.028222755,-0.0088,-0.0166,1.0107,-0.731,-0.192,179.566
2950.128222788,-0.0088,-0.0166,1.0107,-0.731,-0.192,179.566
2950.228222803,-0.0088,-0.0166,1.0107,-0.731,-0.192,179.566
2950.32822289,-0.0088,-0.0166,1.0107,-0.731,-0.192,179.566
2950.428222941,-0.0088,-0.0166,1.0107,-0.731,-0.192,179.566
2950.528222955,-0.0088,-0.0166,1.0107,-0.731,-0.192,179.566
2950.628223024,-0.0088,-0.0166,1.0107,-0.731,-0.192,179.566
2950.728223075,-0.0088,-0.0166,1.0107,-0.731,-0.192,179.566
2950.828223181,-0.0088,-0.0166,1.0107,-0.731,-0.192,179.566
2950.92822325,-0.0088,-0.0166,1.0107,-0.731,-0.192,179.566
2951.028223319,-0.0088,-0.0166,1.0107,-0.731,-0.192,179.566
2951.128223444,-0.0088,-0.0166,1.0107,-0.731,-0.192,179.566
2951.228223458,-0.0088,-0.0166,1.0107,-0.731,-0.192,179.566
2951.328223544,-0.0088,-0.0166,1.0107,-0.731,-0.192,179.566
2951.428223575,-0.0088,-0.0166,1.0107,-0.731,-0.192,179.566
2951.528223625,-0.0088,-0.0166,1.0107,-0.731,-0.192,179.566
2951.628223675,-0.0088,-0.0166,1.0107,-0.731,-0.192,179.566
2951.728223687,-0.0088,-0.0166,1.0107,-0.731,-0.192,179.566
2951.8282237,-0.0088,-0.0166,1.0107,-0.731,-0.192,179.566
2951.928223768,-0.0088,-0.0166,1.0107,-0.731,-0.192,179.566
2952.028223836,-0.0088,-0.0166,1.0107,-0.731,-0.192,179.566
2952.128223923,-0.0088,-0.0166,1.0107,-0.731,-0.192,179.566
2952.22822401,-0.0088,-0.0166,1.0107,-0.731,-0.192,179.566
2952.328224114,-0.0088,-0.0166,1.0107,-0.731,-0.192,179.566
2952.428224181,-0.0088,-0.0166,1.0107,-0.731,-0.192,179.566
2952.528224193,-0.0088,-0.0166,1.0107,-0.731,-0.192,179.566
2952.628224297,-0.0088,-0.0166,1.0107,-0.731,-0.192,179.566
2952.728224383,-0.0088,-0.0166,1.0107,-0.731,-0.192,179.566
2952.828224432,-0.0088,-0.0166,1.0107,-0.731,-0.192,179.566
2952.928224536,-0.0088,-0.0166,1.0107,-0.731,-0.192,179.566
2953.028224622,-0.0088,-0.0166,1.0107,-0.731,-0.192,179.566
2953.128224652,-0.0088,-0.0166,1.0107,-0.731,-0.192,179.566
2953.228224682,-0.0088,-0.0166,1.0107,-0.731,-0.192,179.566
2953.328224693,-0.0088,-0.0166,1.0107,-0.731,-0.192,179.566
2953.428224815,-0.0088,-0.0166,1.0107,-0.731,-0.192,179.566
2953.528224918,-0.0088,-0.0166,1.0107,-0.731,-0.192,179.566
2953.628224928,-0.0088,-0.0166,1.0107,-0.731,-0.192,179.566
2953.728224958,-0.0088,-0.0166,1.0107,-0.731,-0.192,179.566
2953.828225005,-0.0088,-0.0166,1.0107,-0.731,-0.192,179.566
2953.92822509,-0.0088,-0.0166,1.0107,-0.731,-0.192,179.566
2954.028225193,-0.0088,-0.0166,1.0107,-0.731,-0.192,179.566
2954.128225278,-0.0088,-0.0166,1.0107,-0.731,-0.192,179.566
2954.228225289,-0.0088,-0.0166,1.0107,-0.731,-0.192,179.566
2954.328225317,-0.0088,-0.0166,1.0107,-0.731,-0.192,179.566
2954.428225382,-0.0088,-0.0166,1.0107,-0.731,-0.192,179.566
2954.528225484,-0.0088,-0.0166,1.0107,-0.731,-0.192,179.566
2954.628225513,-0.0088,-0.0166,1.0107,-0.731,-0.192,179.566
2954.728225633,-0.0088,-0.0166,1.0107,-0.731,-0.192,179.566
2954.828225736,-0.0088,-0.0166,1.0107,-0.731,-0.192,179.566
2954.928225745,-0.0088,-0.0166,1.0107,-0.731,-0.192,179.566
2955.028225829,-0.0088,-0.0166,1.0107,-0.731,-0.192,179.566
2955.128225839,-0.0088,-0.0166,1.0107,-0.731,-0.192,179.566
2955.228225904,-0.0088,-0.0166,1.0107,-0.731,-0.192,179.566
2955.328225931,-0.0088,-0.0166,1.0107,-0.731,-0.192,179.566
2955.428226033,-0.0088,-0.0166,1.0107,-0.731,-0.192,179.566
2955.528226097,-0.0088,-0.0166,1.0107,-0.731,-0.192,179.566
2955.62822618,-0.0088,-0.0166,1.0107,-0.731,-0.192,179.566
2955.728226225,-0.0088,-0.0166,1.0107,-0.731,-0.192,179.566
2955.828226345,-0.0088,-0.0166,1.0107,-0.731,-0.192,179.566
2955.928226373,-0.0088,-0.0166,1.0107,-0.731,-0.192,179.566
2956.028226418,-0.0088,-0.0166,1.0107,-0.731,-0.192,179.566
2956.12822652,-0.0088,-0.0166,1.0107,-0.731,-0.192,179.566
2956.228226584,-0.0088,-0.0166,1.0107,-0.731,-0.192,179.566
2956.328226592,-0.0088,-0.0166,1.0107,-0.731,-0.192,179.566
2956.428226599,-0.0088,-0.0166,1.0107,-0.731,-0.192,179.566
2956.528226607,-0.0088,-0.0166,1.0107,-0.731,-0.192,179.566
2956.62822667,-0.0088,-0.0166,1.0107,-0.731,-0.192,179.566
2956.728226734,-0.0088,-0.0166,1.0107,-0.731,-0.192,179.566
2956.828226741,-0.0088,-0.0166,1.0107,-0.731,-0.192,179.566
2956.928226768,-0.0088,-0.0166,1.0107,-0.731,-0.192,179.566
2957.028226831,-0.0088,-0.0166,1.0107,-0.731,-0.192,179.566
2957.128226894,-0.0088,-0.0166,1.0107,-0.731,-0.192,179.566
2957.22822692,-0.0088,-0.0166,1.0107,-0.731,-0.192,179.566
2957.328226946,-0.0088,-0.0166,1.0107,-0.731,-0.192,179.566
2957.428226953,-0.0088,-0.0166,1.0107,-0.731,-0.192,179.566
2957.528226996,-0.0088,-0.0166,1.0107,-0.731,-0.192,179.566
2957.628227022,-0.0088,-0.0166,1.0107,-0.731,-0.192,179.566
2957.728227047,-0.0088,-0.0166,1.0107,-0.731,-0.192,179.566
2957.828227072,-0.0088,-0.0166,1.0107,-0.731,-0.192,179.566
2957.928227116,-0.0088,-0.0166,1.0107,-0.731,-0.192,179.566
2958.028227178,-0.0088,-0.0166,1.0107,-0.731,-0.192,179.566
2958.128227259,-0.0088,-0.0166,1.0107,-0.731,-0.192,179.566
2958.228227321,-0.0088,-0.0166,1.0107,-0.731,-0.192,179.566
2958.328227438,-0.0088,-0.0166,1.0107,-0.731,-0.192,179.566
2958.428227463,-0.0088,-0.0166,1.0107,-0.731,-0.192,179.566
2958.528227468,-0.0088,-0.0166,1.0107,-0.731,-0.192,179.566
2958.628227493,-0.0088,-0.0166,1.0107,-0.731,-0.192,179.566
2958.728227536,-0.0088,-0.0166,1.0107,-0.731,-0.192,179.566
2958.828227578,-0.0088,-0.0166,1.0107,-0.731,-0.192,179.566
2958.928227621,-0.0088,-0.0166,1.0107,-0.731,-0.192,179.566
2959.02822772,-0.0088,-0.0166,1.0107,-0.731,-0.192,179.566
2959.128227818,-0.0088,-0.0166,1.0107,-0.731,-0.192,179.566
2959.228227935,-0.0088,-0.0166,1.0107,-0.731,-0.192,179.566
2959.328227977,-0.0088,-0.0166,1.0107,-0.731,-0.192,179.566
2959.428227982,-0.0088,-0.0166,1.0107,-0.731,-0.192,179.566
2959.528228042,-0.0088,-0.0166,1.0107,-0.731,-0.192,179.566
2959.628228121,-0.0088,-0.0166,1.0107,-0.731,-0.192,179.566
2959.7282282,-0.0088,-0.0166,1.0107,-0.731,-0.192,179.566
2959.828228316,-0.0088,-0.0166,1.0107,-0.731,-0.192,179.566
2959.928228321,-0.0088,-0.0166,1.0107,-0.731,-0.192,179.566
2960.028228344,-0.0088,-0.0166,1.0107,-0.731,-0.192,179.566
2960.128228441,-0.0088,-0.0166,1.0107,-0.731,-0.192,179.566
2960.228228483,-0.0088,-0.0166,1.0107,-0.731,-0.192,179.566
2960.328228598,-0.0088,-0.0166,1.0107,-0.731,-0.192,179.566
2960.428228695,-0.0088,-0.0166,1.0107,-0.731,-0.192,179.566
2960.528228754,-0.0088,-0.0166,1.0107,-0.731,-0.192,179.566
2960.628228832,-0.0088,-0.0166,1.0107,-0.731,-0.192,179.566
2960.728228836,-0.0088,-0.0166,1.0107,-0.731,-0.192,179.566
2960.828228858,-0.0088,-0.0166,1.0107,-0.731,-0.192,179.566
2960.928228955,-0.0088,-0.0166,1.0107,-0.731,-0.192,179.566
2961.028228996,-0.0088,-0.0166,1.0107,-0.731,-0.192,179.566
2961.128229037,-0.0088,-0.0166,1.0107,-0.731,-0.192,179.566
2961.228229152,-0.0088,-0.0166,1.0107,-0.731,-0.192,179.566
2961.328229155,-0.0088,-0.0166,1.0107,-0.731,-0.192,179.566
2961.428229195,-0.0088,-0.0166,1.0107,-0.731,-0.192,179.566
2961.528229253,-0.0088,-0.0166,1.0107,-0.731,-0.192,179.566
2961.628229367,-0.0088,-0.0166,1.0107,-0.731,-0.192,179.566
2961.72822937,-0.0088,-0.0166,1.0107,-0.731,-0.192,179.566
2961.828229373,-0.0088,-0.0166,1.0107,-0.731,-0.192,179.566
2961.92822945,-0.0088,-0.0166,1.0107,-0.731,-0.192,179.566
2962.028229527,-0.0088,-0.0166,1.0107,-0.731,-0.192,179.566
2962.128229622,-0.0088,-0.0166,1.0107,-0.731,-0.192,179.566
2962.228229644,-0.0088,-0.0166,1.0107,-0.731,-0.192,179.566
2962.328229701,-0.0088,-0.0166,1.0107,-0.731,-0.192,179.566
2962.428229814,-0.0088,-0.0166,1.0107,-0.731,-0.192,179.566
2962.528229909,-0.0088,-0.0166,1.0107,-0.731,-0.192,179.566
2962.628229985,-0.0088,-0.0166,1.0107,-0.731,-0.192,179.566
2962.728230005,-0.0088,-0.0166,1.0107,-0.731,-0.192,179.566
2962.828230081,-0.0088,-0.0166,1.0107,-0.731,-0.192,179.566
2962.928230102,-0.0088,-0.0166,1.0107,-0.731,-0.192,179.566
2963.028230122,-0.0088,-0.0166,1.0107,-0.731,-0.192,179.566
2963.128230198,-0.0088,-0.0166,1.0107,-0.731,-0.192,179.566
2963.228230274,-0.0088,-0.0166,1.0107,-0.731,-0.192,179.566
2963.328230331,-0.0088,-0.0166,1.0107,-0.731,-0.192,179.566
2963.428230425,-0.0088,-0.0166,1.0107,-0.731,-0.192,179.566
2963.528230444,-0.0088,-0.0166,1.0107,-0.731,-0.192,179.566
2963.628230464,-0.0088,-0.0166,1.0107,-0.731,-0.192,179.566
2963.72823052,-0.0088,-0.0166,1.0107,-0.731,-0.192,179.566
2963.828230521,-0.0088,-0.0166,1.0107,-0.731,-0.192,179.566
2963.928230559,-0.0088,-0.0166,1.0107,-0.731,-0.192,179.566
2964.028230672,-0.0088,-0.0166,1.0107,-0.731,-0.192,179.566
2964.128230765,-0.0088,-0.0166,1.0107,-0.731,-0.192,179.566
2964.228230822,-0.0088,-0.0166,1.0107,-0.731,-0.192,179.566
2964.328230877,-0.0088,-0.0166,1.0107,-0.731,-0.192,179.566
2964.428230952,-0.0088,-0.0166,1.0107,-0.731,-0.192,179.566
2964.528231026,-0.0088,-0.0166,1.0107,-0.731,-0.192,179.566
2964.628231063,-0.0088,-0.0166,1.0107,-0.731,-0.192,179.566
2964.7282311,-0.0088,-0.0166,1.0107,-0.731,-0.192,179.566
2964.828231137,-0.0088,-0.0166,1.0107,-0.731,-0.192,179.566
2964.928231211,-0.0088,-0.0166,1.0107,-0.731,-0.192,179.566
2965.028231304,-0.0088,-0.0166,1.0107,-0.731,-0.192,179.566
2965.128231359,-0.0088,-0.0166,1.0107,-0.731,-0.192,179.566
2965.228231471,-0.0088,-0.0166,1.0107,-0.731,-0.192,179.566
2965.328231581,-0.0088,-0.0166,1.0107,-0.731,-0.192,179.566
2965.428231617,-0.0088,-0.0166,1.0107,-0.731,-0.192,179.566
2965.528231672,-0.0088,-0.0166,1.0107,-0.731,-0.192,179.566
2965.628231763,-0.0088,-0.0166,1.0107,-0.731,-0.192,179.566
2965.728231781,-0.0088,-0.0166,1.0107,-0.731,-0.192,179.566
2965.828231836,-0.0088,-0.0166,1.0107,-0.731,-0.192,179.566
2965.928231853,-0.0088,-0.0166,1.0107,-0.731,-0.192,179.566
2966.02823189,-0.0088,-0.0166,1.0107,-0.731,-0.192,179.566
2966.128231944,-0.0088,-0.0166,1.0107,-0.731,-0.192,179.566
2966.228231962,-0.0088,-0.0166,1.0107,-0.731,-0.192,179.566
2966.328231979,-0.0088,-0.0166,1.0107,-0.731,-0.192,179.566
2966.428232014,-0.0088,-0.0166,1.0107,-0.731,-0.192,179.566
2966.528232049,-0.0088,-0.0166,1.0107,-0.731,-0.192,179.566
2966.628232158,-0.0088,-0.0166,1.0107,-0.731,-0.192,179.566
2966.728609828,-0.0088,-0.0166,1.0107,-0.731,-0.192,179.566
2966.828609863,-0.0088,-0.0166,1.0107,-0.731,-0.192,179.566
2966.928609898,-0.0088,-0.0166,1.0107,-0.731,-0.192,179.566
2967.028610007,-0.0088,-0.0166,1.0107,-0.731,-0.192,179.566
2967.128610117,-0.0088,-0.0166,1.0107,-0.731,-0.192,179.566
2967.228610245,-0.0088,-0.0166,1.0107,-0.731,-0.192,179.566
2967.328610353,-0.0088,-0.0166,1.0107,-0.731,-0.192,179.566
2967.42861048,-0.0088,-0.0166,1.0107,-0.731,-0.192,179.566
2967.52861057,-0.0088,-0.0166,1.0107,-0.731,-0.192,179.566
2967.628610641,-0.0088,-0.0166,1.0107,-0.731,-0.192,179.566
2967.728610657,-0.0088,-0.0166,1.0107,-0.731,-0.192,179.566
2967.828610747,-0.0088,-0.0166,1.0107,-0.731,-0.192,179.566
2967.928610837,-0.0088,-0.0166,1.0107,-0.731,-0.192,179.566
2968.028610945,-0.0088,-0.0166,1.0107,-0.731,-0.192,179.566
2968.128610998,-0.0088,-0.0166,1.0107,-0.731,-0.192,179.566
2968.228611106,-0.0088,-0.0166,1.0107,-0.731,-0.192,179.566
2968.328611158,-0.0088,-0.0166,1.0107,-0.731,-0.192,179.566
2968.428611191,-0.0088,-0.0166,1.0107,-0.731,-0.192,179.566
2968.528611262,-0.0088,-0.0166,1.0107,-0.731,-0.192,179.566
2968.628611332,-0.0088,-0.0166,1.0107,-0.731,-0.192,179.566
2968.728611403,-0.0088,-0.0166,1.0107,-0.731,-0.192,179.566
2968.828611529,-0.0088,-0.0166,1.0107,-0.731,-0.192,179.566
2968.928611562,-0.0088,-0.0166,1.0107,-0.731,-0.192,179.566
2969.028611595,-0.0088,-0.0166,1.0107,-0.731,-0.192,179.566
2969.128611629,-0.0088,-0.0166,1.0107,-0.731,-0.192,179.566
2969.228611736,-0.0088,-0.0166,1.0107,-0.731,-0.192,179.566
2969.328611769,-0.0088,-0.0166,1.0107,-0.731,-0.192,179.566
2969.428611838,-0.0088,-0.0166,1.0107,-0.731,-0.192,179.566
2969.528611908,-0.0088,-0.0166,1.0107,-0.731,-0.192,179.566
2969.628611921,-0.0088,-0.0166,1.0107,-0.731,-0.192,179.566
2969.728611954,-0.0088,-0.0166,1.0107,-0.731,-0.192,179.566
2969.828612079,-0.0088,-0.0166,1.0107,-0.731,-0.192,179.566
2969.928612167,-0.0088,-0.0166,1.0107,-0.731,-0.192,179.566
2970.028612218,-0.0088,-0.0166,1.0107,-0.731,-0.192,179.566
2970.128612287,-0.0088,-0.0166,1.0107,-0.731,-0.192,179.566
2970.228612375,-0.0088,-0.0166,1.0107,-0.731,-0.192,179.566
2970.328612444,-0.0088,-0.0166,1.0107,-0.731,-0.192,179.566
2970.42861255,-0.0088,-0.0166,1.0107,-0.731,-0.192,179.566
2970.5286126,-0.0088,-0.0166,1.0107,-0.731,-0.192,179.566
2970.628612631,-0.0088,-0.0166,1.0107,-0.731,-0.192,179.566
2970.728612644,-0.0088,-0.0166,1.0107,-0.731,-0.192,179.566
2970.82861275,-0.0088,-0.0166,1.0107,-0.731,-0.192,179.566
2970.928612837,-0.0088,-0.0166,1.0107,-0.731,-0.192,179.566
2971.028612924,-0.0088,-0.0166,1.0107,-0.731,-0.192,179.566
2971.128612974,-0.0088,-0.0166,1.0107,-0.731,-0.192,179.566
2971.228613061,-0.0088,-0.0166,1.0107,-0.731,-0.192,179.566
2971.32861311,-0.0088,-0.0166,1.0107,-0.731,-0.192,179.566
2971.428613159,-0.0088,-0.0166,1.0107,-0.731,-0.192,179.566
2971.528613171,-0.0088,-0.0166,1.0107,-0.731,-0.192,179.566
2971.628613183,-0.0088,-0.0166,1.0107,-0.731,-0.192,179.566
2971.728613307,-0.0088,-0.0166,1.0107,-0.731,-0.192,179.566
2971.828613337,-0.0088,-0.0166,1.0107,-0.731,-0.192,179.566
2971.928613349,-0.0088,-0.0166,1.0107,-0.731,-0.192,179.566
2972.028613454,-0.0088,-0.0166,1.0107,-0.731,-0.192,179.566
2972.128613503,-0.0088,-0.0166,1.0107,-0.731,-0.192,179.566
2972.228613534,-0.0088,-0.0166,1.0107,-0.731,-0.192,179.566
2972.328613656,-0.0088,-0.0166,1.0107,-0.731,-0.192,179.566
2972.428613667,-0.0088,-0.0166,1.0107,-0.731,-0.192,179.566
2972.528613752,-0.0088,-0.0166,1.0107,-0.731,-0.192,179.566
2972.628613763,-0.0088,-0.0166,1.0107,-0.731,-0.192,179.566
2972.728613867,-0.0088,-0.0166,1.0107,-0.731,-0.192,179.566
2972.828613971,-0.0088,-0.0166,1.0107,-0.731,-0.192,179.566
2972.928614019,-0.0088,-0.0166,1.0107,-0.731,-0.192,179.566
2973.028614086,-0.0088,-0.0166,1.0107,-0.731,-0.192,179.566
2973.12861419,-0.0088,-0.0166,1.0107,-0.731,-0.192,179.566
2973.228614293,-0.0088,-0.0166,1.0107,-0.731,-0.192,179.566
2973.328614396,-0.0088,-0.0166,1.0107,-0.731,-0.192,179.566
2973.428614425,-0.0088,-0.0166,1.0107,-0.731,-0.192,179.566
2973.528614491,-0.0088,-0.0166,1.0107,-0.731,-0.192,179.566
2973.628614538,-0.0088,-0.0166,1.0107,-0.731,-0.192,179.566
2973.728614622,-0.0088,-0.0166,1.0107,-0.731,-0.192,179.566
2973.828614725,-0.0088,-0.0166,1.0107,-0.731,-0.192,179.566
2973.928614828,-0.0088,-0.0166,1.0107,-0.731,-0.192,179.566
2974.028614894,-0.0088,-0.0166,1.0107,-0.731,-0.192,179.566
2974.128614923,-0.0088,-0.0166,1.0107,-0.731,-0.192,179.566
2974.228615026,-0.0088,-0.0166,1.0107,-0.731,-0.192,179.566
2974.328615053,-0.0088,-0.0166,1.0107,-0.731,-0.192,179.566
2974.428615118,-0.0088,-0.0166,1.0107,-0.731,-0.192,179.566
2974.528615202,-0.0088,-0.0166,1.0107,-0.731,-0.192,179.566
2974.628615248,-0.0088,-0.0166,1.0107,-0.731,-0.192,179.566
2974.728615295,-0.0088,-0.0166,1.0107,-0.731,-0.192,179.566
2974.828615341,-0.0088,-0.0166,1.0107,-0.731,-0.192,179.566
2974.928615424,-0.0088,-0.0166,1.0107,-0.731,-0.192,179.566
2975.028615526,-0.0088,-0.0166,1.0107,-0.731,-0.192,179.566
2975.128615573,-0.0088,-0.0166,1.0107,-0.731,-0.192,179.566
2975.228615582,-0.0088,-0.0166,1.0107,-0.731,-0.192,179.566
2975.328615646,-0.0088,-0.0166,1.0107,-0.731,-0.192,179.566
2975.428615729,-0.0088,-0.0166,1.0107,-0.731,-0.192,179.566
2975.528615774,-0.0088,-0.0166,1.0107,-0.731,-0.192,179.566
2975.628615857,-0.0088,-0.0166,1.0107,-0.731,-0.192,179.566
2975.728615883,-0.0088,-0.0166,1.0107,-0.731,-0.192,179.566
2975.828615892,-0.0088,-0.0166,1.0107,-0.731,-0.192,179.566
2975.9286159,-0.0088,-0.0166,1.0107,-0.731,-0.192,179.566
2976.028616001,-0.0088,-0.0166,1.0107,-0.731,-0.192,179.566
2976.128616028,-0.0088,-0.0166,1.0107,-0.731,-0.192,179.566
2976.228616092,-0.0088,-0.0166,1.0107,-0.731,-0.192,179.566
2976.328616211,-0.0088,-0.0166,1.0107,-0.731,-0.192,179.566
2976.428616311,-0.0088,-0.0166,1.0107,-0.731,-0.192,179.566
2976.528616319,-0.0088,-0.0166,1.0107,-0.731,-0.192,179.566
2976.6286164,-0.0088,-0.0166,1.0107,-0.731,-0.192,179.566
2976.728616463,-0.0088,-0.0166,1.0107,-0.731,-0.192,179.566
2976.828616526,-0.0088,-0.0166,1.0107,-0.731,-0.192,179.566
2976.928616627,-0.0088,-0.0166,1.0107,-0.731,-0.192,179.566
2977.028616671,-0.0088,-0.0166,1.0107,-0.731,-0.192,179.566
2977.128616771,-0.0088,-0.0166,1.0107,-0.731,-0.192,179.566
2977.228616779,-0.0088,-0.0166,1.0107,-0.731,-0.192,179.566
2977.328616786,-0.0088,-0.0166,1.0107,-0.731,-0.192,179.566
2977.428616866,-0.0088,-0.0166,1.0107,-0.731,-0.192,179.566
2977.528616873,-0.0088,-0.0166,1.0107,-0.731,-0.192,179.566
2977.62861688,-0.0088,-0.0166,1.0107,-0.731,-0.192,179.566
2977.728616923,-0.0088,-0.0166,1.0107,-0.731,-0.192,179.566
2977.828617004,-0.0088,-0.0166,1.0107,-0.731,-0.192,179.566
2977.928617122,-0.0088,-0.0166,1.0107,-0.731,-0.192,179.566
2978.028617202,-0.0088,-0.0166,1.0107,-0.731,-0.192,179.566
2978.128617246,-0.0088,-0.0166,1.0107,-0.731,-0.192,179.566
2978.228617253,-0.0088,-0.0166,1.0107,-0.731,-0.192,179.566
2978.328617296,-0.0088,-0.0166,1.0107,-0.731,-0.192,179.566
2978.428617375,-0.0088,-0.0166,1.0107,-0.731,-0.192,179.566
2978.528617418,-0.0088,-0.0166,1.0107,-0.731,-0.192,179.566
2978.628617479,-0.0088,-0.0166,1.0107,-0.731,-0.192,179.566
2978.728617578,-0.0088,-0.0166,1.0107,-0.731,-0.192,179.566
2978.828617621,-0.0088,-0.0166,1.0107,-0.731,-0.192,179.566
2978.928617682,-0.0088,-0.0166,1.0107,-0.731,-0.192,179.566
2979.028617799,-0.0088,-0.0166,1.0107,-0.731,-0.192,179.566
2979.12861786,-0.0088,-0.0166,1.0107,-0.731,-0.192,179.566
2979.22861794,-0.0088,-0.0166,1.0107,-0.731,-0.192,179.566
2979.328618019,-0.0088,-0.0166,1.0107,-0.731,-0.192,179.566
2979.428618079,-0.0088,-0.0166,1.0107,-0.731,-0.192,179.566
2979.528618121,-0.0088,-0.0166,1.0107,-0.731,-0.192,179.566
2979.628618218,-0.0088,-0.0166,1.0107,-0.731,-0.192,179.566
2979.728618334,-0.0088,-0.0166,1.0107,-0.731,-0.192,179.566
2979.828618395,-0.0088,-0.0166,1.0107,-0.731,-0.192,179.566
2979.9286184,-0.0088,-0.0166,1.0107,-0.731,-0.192,179.566
2980.028618497,-0.0088,-0.0166,1.0107,-0.731,-0.192,179.566
2980.128618502,-0.0088,-0.0166,1.0107,-0.731,-0.192,179.566
2980.228618562,-0.0088,-0.0166,1.0107,-0.731,-0.192,179.566
2980.328618622,-0.0088,-0.0166,1.0107,-0.731,-0.192,179.566
2980.428618682,-0.0088,-0.0166,1.0107,-0.731,-0.192,179.566
2980.528618778,-0.0088,-0.0166,1.0107,-0.731,-0.192,179.566
2980.628618801,-0.0088,-0.0166,1.0107,-0.731,-0.192,179.566
2980.728618879,-0.0088,-0.0166,1.0107,-0.731,-0.192,179.566
2980.828618957,-0.0088,-0.0166,1.0107,-0.731,-0.192,179.566
2980.928619016,-0.0088,-0.0166,1.0107,-0.731,-0.192,179.566
2981.028619076,-0.0088,-0.0166,1.0107,-0.731,-0.192,179.566
2981.128619098,-0.0088,-0.0166,1.0107,-0.731,-0.192,179.566
2981.228619121,-0.0088,-0.0166,1.0107,-0.731,-0.192,179.566
2981.328619124,-0.0088,-0.0166,1.0107,-0.731,-0.192,179.566
2981.428619219,-0.0088,-0.0166,1.0107,-0.731,-0.192,179.566
2981.528619297,-0.0088,-0.0166,1.0107,-0.731,-0.192,179.566
2981.628619374,-0.0088,-0.0166,1.0107,-0.731,-0.192,179.566
2981.728619377,-0.0088,-0.0166,1.0107,-0.731,-0.192,179.566
2981.828619435,-0.0088,-0.0166,1.0107,-0.731,-0.192,179.566
2981.92861955,-0.0088,-0.0166,1.0107,-0.731,-0.192,179.566
2982.028619553,-0.0088,-0.0166,1.0107,-0.731,-0.192,179.566
2982.128619648,-0.0088,-0.0166,1.0107,-0.731,-0.192,179.566
2982.228619689,-0.0088,-0.0166,1.0107,-0.731,-0.192,179.566
2982.328619765,-0.0088,-0.0166,1.0107,-0.731,-0.192,179.566
2982.42861986,-0.0088,-0.0166,1.0107,-0.731,-0.192,179.566
2982.528619954,-0.0088,-0.0166,1.0107,-0.731,-0.192,179.566
2982.628620068,-0.0088,-0.0166,1.0107,-0.731,-0.192,179.566
2982.728620144,-0.0088,-0.0166,1.0107,-0.731,-0.192,179.566
2982.828620183,-0.0088,-0.0166,1.0107,-0.731,-0.192,179.566
2982.928620222,-0.0088,-0.0166,1.0107,-0.731,-0.192,179.566
2983.028620225,-0.0088,-0.0166,1.0107,-0.731,-0.192,179.566
2983.128620319,-0.0088,-0.0166,1.0107,-0.731,-0.192,179.566
2983.228620377,-0.0088,-0.0166,1.0107,-0.731,-0.192,179.566
2983.328620397,-0.0088,-0.0166,1.0107,-0.731,-0.192,179.566
2983.428620473,-0.0088,-0.0166,1.0107,-0.731,-0.192,179.566
2983.528620492,-0.0088,-0.0166,1.0107,-0.731,-0.192,179.566
2983.628620586,-0.0088,-0.0166,1.0107,-0.731,-0.192,179.566
2983.728620606,-0.0088,-0.0166,1.0107,-0.731,-0.192,179.566
2983.8286207,-0.0088,-0.0166,1.0107,-0.731,-0.192,179.566
2983.928620738,-0.0088,-0.0166,1.0107,-0.731,-0.192,179.566
2984.028620814,-0.0088,-0.0166,1.0107,-0.731,-0.192,179.566
2984.128620871,-0.0088,-0.0166,1.0107,-0.731,-0.192,179.566
2984.228620891,-0.0088,-0.0166,1.0107,-0.731,-0.192,179.566
2984.328620984,-0.0088,-0.0166,1.0107,-0.731,-0.192,179.566
2984.428621077,-0.0088,-0.0166,1.0107,-0.731,-0.192,179.566
2984.528621114,-0.0088,-0.0166,1.0107,-0.731,-0.192,179.566
2984.628621115,-0.0088,-0.0166,1.0107,-0.731,-0.192,179.566
2984.728621208,-0.0088,-0.0166,1.0107,-0.731,-0.192,179.566
2984.828621264,-0.0088,-0.0166,1.0107,-0.731,-0.192,179.566
2984.928621301,-0.0088,-0.0166,1.0107,-0.731,-0.192,179.566
2985.028621376,-0.0088,-0.0166,1.0107,-0.731,-0.192,179.566
2985.128621487,-0.0088,-0.0166,1.0107,-0.731,-0.192,179.566
2985.228621599,-0.0088,-0.0166,1.0107,-0.731,-0.192,179.566
2985.328621691,-0.0088,-0.0166,1.0107,-0.731,-0.192,179.566
2985.428621802,-0.0088,-0.0166,1.0107,-0.731,-0.192,179.566
2985.528621894,-0.0088,-0.0166,1.0107,-0.731,-0.192,179.566
2985.62862193,-0.0088,-0.0166,1.0107,-0.731,-0.192,179.566
2985.728622004,-0.0088,-0.0166,1.0107,-0.731,-0.192,179.566
2985.828622133,-0.0088,-0.0166,1.0107,-0.731,-0.192,179.566
2985.92862217,-0.0088,-0.0166,1.0107,-0.731,-0.192,179.566
2986.028622281,-0.0088,-0.0166,1.0107,-0.731,-0.192,179.566
2986.128622336,-0.0088,-0.0166,1.0107,-0.731,-0.192,179.566
2986.228622409,-0.0088,-0.0166,1.0107,-0.731,-0.192,179.566
2986.328622427,-0.0088,-0.0166,1.0107,-0.731,-0.192,179.566
2986.428622537,-0.0088,-0.0166,1.0107,-0.731,-0.192,179.566
2986.528622554,-0.0088,-0.0166,1.0107,-0.731,-0.192,179.566
2986.628622645,-0.0088,-0.0166,1.0107,-0.731,-0.192,179.566
2986.728622736,-0.0088,-0.0166,1.0107,-0.731,-0.192,179.566
2986.828622809,-0.0088,-0.0166,1.0107,-0.731,-0.192,179.566
2986.928622937,-0.0088,-0.0166,1.0107,-0.731,-0.192,179.566
2987.028623029,-0.0088,-0.0166,1.0107,-0.731,-0.192,179.566
2987.128623139,-0.0088,-0.0166,1.0107,-0.731,-0.192,179.566
2987.228623156,-0.0088,-0.0166,1.0107,-0.731,-0.192,179.566
2987.328623191,-0.0088,-0.0166,1.0107,-0.731,-0.192,179.566
2987.428623318,-0.0088,-0.0166,1.0107,-0.731,-0.192,179.566
2987.52862339,-0.0088,-0.0166,1.0107,-0.731,-0.192,179.566
2987.628623425,-0.0088,-0.0166,1.0107,-0.731,-0.192,179.566
2987.728623441,-0.0088,-0.0166,1.0107,-0.731,-0.192,179.566
2987.828623476,-0.0088,-0.0166,1.0107,-0.731,-0.192,179.566
2987.928623585,-0.0088,-0.0166,1.0107,-0.731,-0.192,179.566
2988.028623639,-0.0088,-0.0166,1.0107,-0.731,-0.192,179.566
2988.128623674,-0.0088,-0.0166,1.0107,-0.731,-0.192,179.566
2988.228623764,-0.0088,-0.0166,1.0107,-0.731,-0.192,179.566
2988.328623817,-0.0088,-0.0166,1.0107,-0.731,-0.192,179.566
2988.428623851,-0.0088,-0.0166,1.0107,-0.731,-0.192,179.566
2988.528623866,-0.0088,-0.0166,1.0107,-0.731,-0.192,179.566
2988.628623974,-0.0088,-0.0166,1.0107,-0.731,-0.192,179.566
2988.728624008,-0.0088,-0.0166,1.0107,-0.731,-0.192,179.566
2988.828624061,-0.0088,-0.0166,1.0107,-0.731,-0.192,179.566
2988.928624076,-0.0088,-0.0166,1.0107,-0.731,-0.192,179.566
2989.028624092,-0.0088,-0.0166,1.0107,-0.731,-0.192,179.566
2989.128624126,-0.0088,-0.0166,1.0107,-0.731,-0.192,179.566
2989.228624234,-0.0088,-0.0166,1.0107,-0.731,-0.192,179.566
2989.328624267,-0.0088,-0.0166,1.0107,-0.731,-0.192,179.566
2989.428624356,-0.0088,-0.0166,1.0107,-0.731,-0.192,179.566
2989.528624371,-0.0088,-0.0166,1.0107,-0.731,-0.192,179.566
2989.628624385,-0.0088,-0.0166,1.0107,-0.731,-0.192,179.566
2989.728624455,-0.0088,-0.0166,1.0107,-0.731,-0.192,179.566
2989.828624526,-0.0088,-0.0166,1.0107,-0.731,-0.192,179.566
2989.928624614,-0.0088,-0.0166,1.0107,-0.731,-0.192,179.566
2990.028624722,-0.0088,-0.0166,1.0107,-0.731,-0.192,179.566
2990.128624755,-0.0088,-0.0166,1.0107,-0.731,-0.192,179.566
2990.228624788,-0.0088,-0.0166,1.0107,-0.731,-0.192,179.566
2990.328624894,-0.0088,-0.0166,1.0107,-0.731,-0.192,179.566
2990.428624927,-0.0088,-0.0166,1.0107,-0.731,-0.192,179.566
2990.528625015,-0.0088,-0.0166,1.0107,-0.731,-0.192,179.566
2990.628625102,-0.0088,-0.0166,1.0107,-0.731,-0.192,179.566
2990.728625116,-0.0088,-0.0166,1.0107,-0.731,-0.192,179.566
2990.828625204,-0.0088,-0.0166,1.0107,-0.731,-0.192,179.566
2990.928625218,-0.0088,-0.0166,1.0107,-0.731,-0.192,179.566
2991.028625287,-0.0088,-0.0166,1.0107,-0.731,-0.192,179.566
2991.12862532,-0.0088,-0.0166,1.0107,-0.731,-0.192,179.566
2991.228625333,-0.0088,-0.0166,1.0107,-0.731,-0.192,179.566
2991.328625402,-0.0088,-0.0166,1.0107,-0.731,-0.192,179.566
2991.428625433,-0.0088,-0.0166,1.0107,-0.731,-0.192,179.566
2991.528625502,-0.0088,-0.0166,1.0107,-0.731,-0.192,179.566
2991.628625533,-0.0088,-0.0166,1.0107,-0.731,-0.192,179.566
2991.728625565,-0.0088,-0.0166,1.0107,-0.731,-0.192,179.566
2991.828625615,-0.0088,-0.0166,1.0107,-0.731,-0.192,179.566
2991.92862572,-0.0088,-0.0166,1.0107,-0.731,-0.192,179.566
2992.028625789,-0.0088,-0.0166,1.0107,-0.731,-0.192,179.566
2992.12862582,-0.0088,-0.0166,1.0107,-0.731,-0.192,179.566
2992.228625833,-0.0088,-0.0166,1.0107,-0.731,-0.192,179.566
2992.328625882,-0.0088,-0.0166,1.0107,-0.731,-0.192,179.566
2992.428625913,-0.0088,-0.0166,1.0107,-0.731,-0.192,179.566
2992.528625962,-0.0088,-0.0166,1.0107,-0.731,-0.192,179.566
2992.628626011,-0.0088,-0.0166,1.0107,-0.731,-0.192,179.566
2992.728626042,-0.0088,-0.0166,1.0107,-0.731,-0.192,179.566
2992.828626091,-0.0088,-0.0166,1.0107,-0.731,-0.192,179.566
2992.928626103,-0.0088,-0.0166,1.0107,-0.731,-0.192,179.566
2993.028626152,-0.0088,-0.0166,1.0107,-0.731,-0.192,179.566
2993.128626164,-0.0088,-0.0166,1.0107,-0.731,-0.192,179.566
2993.228626214,-0.0088,-0.0166,1.0107,-0.731,-0.192,179.566
2993.328626336,-0.0088,-0.0166,1.0107,-0.731,-0.192,179.566
2993.428626384,-0.0088,-0.0166,1.0107,-0.731,-0.192,179.566
2993.528626414,-0.0088,-0.0166,1.0107,-0.731,-0.192,179.566
2993.628626536,-0.0088,-0.0166,1.0107,-0.731,-0.192,179.566
2993.728626603,-0.0088,-0.0166,1.0107,-0.731,-0.192,179.566
2993.828626633,-0.0088,-0.0166,1.0107,-0.731,-0.192,179.566
2993.928626663,-0.0088,-0.0166,1.0107,-0.731,-0.192,179.566
2994.02862673,-0.0088,-0.0166,1.0107,-0.731,-0.192,179.566
2994.128626741,-0.0088,-0.0166,1.0107,-0.731,-0.192,179.566
2994.228626808,-0.0088,-0.0166,1.0107,-0.731,-0.192,179.566
2994.328626837,-0.0088,-0.0166,1.0107,-0.731,-0.192,179.566
2994.428626866,-0.0088,-0.0166,1.0107,-0.731,-0.192,179.566
2994.528626876,-0.0088,-0.0166,1.0107,-0.731,-0.192,179.566
2994.628626886,-0.0088,-0.0166,1.0107,-0.731,-0.192,179.566
2994.728626989,-0.0088,-0.0166,1.0107,-0.731,-0.192,179.566
2994.828627018,-0.0088,-0.0166,1.0107,-0.731,-0.192,179.566
2994.928627084,-0.0088,-0.0166,1.0107,-0.731,-0.192,179.566
2995.028627113,-0.0088,-0.0166,1.0107,-0.731,-0.192,179.566
2995.128627142,-0.0088,-0.0166,1.0107,-0.731,-0.192,179.566
2995.228627171,-0.0088,-0.0166,1.0107,-0.731,-0.192,179.566
2995.328627255,-0.0088,-0.0166,1.0107,-0.731,-0.192,179.566
2995.428627264,-0.0088,-0.0166,1.0107,-0.731,-0.192,179.566
2995.528627348,-0.0088,-0.0166,1.0107,-0.731,-0.192,179.566
2995.628627358,-0.0088,-0.0166,1.0107,-0.731,-0.192,179.566
2995.728627367,-0.0088,-0.0166,1.0107,-0.731,-0.192,179.566
2995.828627451,-0.0088,-0.0166,1.0107,-0.731,-0.192,179.566
2995.928627535,-0.0088,-0.0166,1.0107,-0.731,-0.192,179.566
2996.028627544,-0.0088,-0.0166,1.0107,-0.731,-0.192,179.566
2996.128627628,-0.0088,-0.0166,1.0107,-0.731,-0.192,179.566
2996.228665506,-0.0088,-0.0166,1.0107,-0.731,-0.192,179.566
2996.328665571,-0.0088,-0.0166,1.0107,-0.731,-0.192,179.566
2996.428665598,-0.0088,-0.0166,1.0107,-0.731,-0.192,179.566
2996.528665625,-0.0088,-0.0166,1.0107,-0.731,-0.192,179.566
2996.628665708,-0.0088,-0.0166,1.0107,-0.731,-0.192,179.566
2996.728665754,-0.0088,-0.0166,1.0107,-0.731,-0.192,179.566
2996.828665818,-0.0088,-0.0166,1.0107,-0.731,-0.192,179.566
2996.928665845,-0.0088,-0.0166,1.0107,-0.731,-0.192,179.566
2997.028665854,-0.0088,-0.0166,1.0107,-0.731,-0.192,179.566
2997.128665918,-0.0088,-0.0166,1.0107,-0.731,-0.192,179.566
2997.22866602,-0.0088,-0.0166,1.0107,-0.731,-0.192,179.566
2997.328666102,-0.0088,-0.0166,1.0107,-0.731,-0.192,179.566
2997.42866611,-0.0088,-0.0166,1.0107,-0.731,-0.192,179.566
2997.528666192,-0.0088,-0.0166,1.0107,-0.731,-0.192,179.566
2997.628666311,-0.0088,-0.0166,1.0107,-0.731,-0.192,179.566
2997.728666319,-0.0088,-0.0166,1.0107,-0.731,-0.192,179.566
2997.828666364,-0.0088,-0.0166,1.0107,-0.731,-0.192,179.566
2997.928666427,-0.0088,-0.0166,1.0107,-0.731,-0.192,179.566
2998.028666454,-0.0088,-0.0166,1.0107,-0.731,-0.192,179.566
2998.128666554,-0.0088,-0.0166,1.0107,-0.731,-0.192,179.566
2998.22866658,-0.0088,-0.0166,1.0107,-0.731,-0.192,179.566
2998.328666606,-0.0088,-0.0166,1.0107,-0.731,-0.192,179.566
2998.428666687,-0.0088,-0.0166,1.0107,-0.731,-0.192,179.566
2998.528666713,-0.0088,-0.0166,1.0107,-0.731,-0.192,179.566
2998.628666757,-0.0088,-0.0166,1.0107,-0.731,-0.192,179.566
2998.728666801,-0.0088,-0.0166,1.0107,-0.731,-0.192,179.566
2998.828666845,-0.0088,-0.0166,1.0107,-0.731,-0.192,179.566
2998.928666926,-0.0088,-0.0166,1.0107,-0.731,-0.192,179.566
2999.028666971,-0.0088,-0.0166,1.0107,-0.731,-0.192,179.566
2999.128667015,-0.0088,-0.0166,1.0107,-0.731,-0.192,179.566
2999.228667022,-0.0088,-0.0166,1.0107,-0.731,-0.192,179.566
2999.328667047,-0.0088,-0.0166,1.0107,-0.731,-0.192,179.566
2999.428667146,-0.0088,-0.0166,1.0107,-0.731,-0.192,179.566
2999.528667207,-0.0088,-0.0166,1.0107,-0.731,-0.192,179.566
2999.628667251,-0.0088,-0.0166,1.0107,-0.731,-0.192,179.566
2999.728667257,-0.0088,-0.0166,1.0107,-0.731,-0.192,179.566
2999.828667319,-0.0088,-0.0166,1.0107,-0.731,-0.192,179.566
2999.928667362,-0.0088,-0.0166,1.0107,-0.731,-0.192,179.566
3000.028667387,-0.0088,-0.0166,1.0107,-0.731,-0.192,179.566
3000.128667412,-0.0088,-0.0166,1.0107,-0.731,-0.192,179.566
3000.228667418,-0.0088,-0.0166,1.0107,-0.731,-0.192,179.566
3000.328667516,-0.0088,-0.0166,1.0107,-0.731,-0.192,179.566
3000.428667577,-0.0088,-0.0166,1.0107,-0.731,-0.192,179.566
3000.528667657,-0.0088,-0.0166,1.0107,-0.731,-0.192,179.566
3000.628667717,-0.0088,-0.0166,1.0107,-0.731,-0.192,179.566
3000.728667741,-0.0088,-0.0166,1.0107,-0.731,-0.192,179.566
3000.828667839,-0.0088,-0.0166,1.0107,-0.731,-0.192,179.566
3000.9286679,-0.0088,-0.0166,1.0107,-0.731,-0.192,179.566
3001.028667906,-0.0088,-0.0166,1.0107,-0.731,-0.192,179.566
3001.12866793,-0.0088,-0.0166,1.0107,-0.731,-0.192,179.566
3001.228667972,-0.0088,-0.0166,1.0107,-0.731,-0.192,179.566
3001.32866807,-0.0088,-0.0166,1.0107,-0.731,-0.192,179.566
3001.428668167,-0.0088,-0.0166,1.0107,-0.731,-0.192,179.566
3001.528668227,-0.0088,-0.0166,1.0107,-0.731,-0.192,179.566
3001.628668269,-0.0088,-0.0166,1.0107,-0.731,-0.192,179.566
3001.729823582,-0.0088,-0.0166,1.0107,-0.731,-0.192,179.566
3001.829823605,-0.0088,-0.0166,1.0107,-0.731,-0.192,179.566
3001.929823702,-0.0088,-0.0166,1.0107,-0.731,-0.192,179.566
3002.029823781,-0.0088,-0.0166,1.0107,-0.731,-0.192,179.566
3002.129823841,-0.0088,-0.0166,1.0107,-0.731,-0.192,179.566
3002.229823883,-0.0088,-0.0166,1.0107,-0.731,-0.192,179.566
3002.329823942,-0.0088,-0.0166,1.0107,-0.731,-0.192,179.566
3002.42982402,-0.0088,-0.0166,1.0107,-0.731,-0.192,179.566
3002.529824098,-0.0088,-0.0166,1.0107,-0.731,-0.192,179.566
3002.629824102,-0.0088,-0.0166,1.0107,-0.731,-0.192,179.566
3002.729824124,-0.0088,-0.0166,1.0107,-0.731,-0.192,179.566
3002.829824221,-0.0088,-0.0166,1.0107,-0.731,-0.192,179.566
3002.929824317,-0.0088,-0.0166,1.0107,-0.731,-0.192,179.566
3003.029824432,-0.0088,-0.0166,1.0107,-0.731,-0.192,179.566
3003.129824491,-0.0088,-0.0166,1.0107,-0.731,-0.192,179.566
3003.229824606,-0.0088,-0.0166,1.0107,-0.731,-0.192,179.566
3003.329824683,-0.0088,-0.0166,1.0107,-0.731,-0.192,179.566
3003.429824705,-0.0088,-0.0166,1.0107,-0.731,-0.192,179.566
3003.529824764,-0.0088,-0.0166,1.0107,-0.731,-0.192,179.566
3003.629824767,-0.0088,-0.0166,1.0107,-0.731,-0.192,179.566
3003.729824862,-0.0088,-0.0166,1.0107,-0.731,-0.192,179.566
3003.829824865,-0.0088,-0.0166,1.0107,-0.731,-0.192,179.566
3003.929824924,-0.0088,-0.0166,1.0107,-0.731,-0.192,179.566
3004.029824927,-0.0088,-0.0166,1.0107,-0.731,-0.192,179.566
3004.12982493,-0.0088,-0.0166,1.0107,-0.731,-0.192,179.566
3004.229824951,-0.0088,-0.0166,1.0107,-0.731,-0.192,179.566
3004.32982499,-0.0088,-0.0166,1.0107,-0.731,-0.192,179.566
3004.429825048,-0.0088,-0.0166,1.0107,-0.731,-0.192,179.566
3004.529825069,-0.0088,-0.0166,1.0107,-0.731,-0.192,179.566
3004.629825071,-0.0088,-0.0166,1.0107,-0.731,-0.192,179.566
3004.729825073,-0.0088,-0.0166,1.0107,-0.731,-0.192,179.566
3004.829825131,-0.0088,-0.0166,1.0107,-0.731,-0.192,179.566
3004.929825207,-0.0088,-0.0166,1.0107,-0.731,-0.192,179.566
3005.029825265,-0.0088,-0.0166,1.0107,-0.731,-0.192,179.566
3005.129825323,-0.0088,-0.0166,1.0107,-0.731,-0.192,179.566
3005.229825344,-0.0088,-0.0166,1.0107,-0.731,-0.192,179.566
3005.329825364,-0.0088,-0.0166,1.0107,-0.731,-0.192,179.566
3005.429825458,-0.0088,-0.0166,1.0107,-0.731,-0.192,179.566
3005.529825477,-0.0088,-0.0166,1.0107,-0.731,-0.192,179.566
3005.62982559,-0.0088,-0.0166,1.0107,-0.731,-0.192,179.566
3005.729825665,-0.0088,-0.0166,1.0107,-0.731,-0.192,179.566
3005.829825704,-0.0088,-0.0166,1.0107,-0.731,-0.192,179.566
3005.929825779,-0.0088,-0.0166,1.0107,-0.731,-0.192,179.566
3006.029825873,-0.0088,-0.0166,1.0107,-0.731,-0.192,179.566
3006.129825893,-0.0088,-0.0166,1.0107,-0.731,-0.192,179.566
3006.229825913,-0.0088,-0.0166,1.0107,-0.731,-0.192,179.566
3006.329825914,-0.0088,-0.0166,1.0107,-0.731,-0.192,179.566
3006.429826007,-0.0088,-0.0166,1.0107,-0.731,-0.192,179.566
3006.5298261,-0.0088,-0.0166,1.0107,-0.731,-0.192,179.566
3006.629826175,-0.0088,-0.0166,1.0107,-0.731,-0.192,179.566
3006.729826194,-0.0088,-0.0166,1.0107,-0.731,-0.192,179.566
3006.829826287,-0.0088,-0.0166,1.0107,-0.731,-0.192,179.566
3006.929826325,-0.0088,-0.0166,1.0107,-0.731,-0.192,179.566
3007.029826344,-0.0088,-0.0166,1.0107,-0.731,-0.192,179.566
3007.129826418,-0.0088,-0.0166,1.0107,-0.731,-0.192,179.566
3007.229826437,-0.0088,-0.0166,1.0107,-0.731,-0.192,179.566
3007.329826493,-0.0088,-0.0166,1.0107,-0.731,-0.192,179.566
3007.429826511,-0.0088,-0.0166,1.0107,-0.731,-0.192,179.566
3007.529826622,-0.0088,-0.0166,1.0107,-0.731,-0.192,179.566
3007.629826696,-0.0088,-0.0166,1.0107,-0.731,-0.192,179.566
3007.729826733,-0.0088,-0.0166,1.0107,-0.731,-0.192,179.566
3007.829826751,-0.0088,-0.0166,1.0107,-0.731,-0.192,179.566
3007.929826806,-0.0088,-0.0166,1.0107,-0.731,-0.192,179.566
3008.029826899,-0.0088,-0.0166,1.0107,-0.731,-0.192,179.566
3008.12982701,-0.0088,-0.0166,1.0107,-0.731,-0.192,179.566
3008.229827102,-0.0088,-0.0166,1.0107,-0.731,-0.192,179.566
3008.329827194,-0.0088,-0.0166,1.0107,-0.731,-0.192,179.566
3008.429827267,-0.0088,-0.0166,1.0107,-0.731,-0.192,179.566
3008.529827321,-0.0088,-0.0166,1.0107,-0.731,-0.192,179.566
3008.629827357,-0.0088,-0.0166,1.0107,-0.731,-0.192,179.566
3008.729827412,-0.0088,-0.0166,1.0107,-0.731,-0.192,179.566
3008.829827485,-0.0088,-0.0166,1.0107,-0.731,-0.192,179.566
3008.929827595,-0.0088,-0.0166,1.0107,-0.731,-0.192,179.566
3009.02982765,-0.0088,-0.0166,1.0107,-0.731,-0.192,179.566
3009.12982776,-0.0088,-0.0166,1.0107,-0.731,-0.192,179.566
3009.229827814,-0.0088,-0.0166,1.0107,-0.731,-0.192,179.566
3009.329827831,-0.0088,-0.0166,1.0107,-0.731,-0.192,179.566
3009.429827848,-0.0088,-0.0166,1.0107,-0.731,-0.192,179.566
3009.529827902,-0.0088,-0.0166,1.0107,-0.731,-0.192,179.566
3009.629827955,-0.0088,-0.0166,1.0107,-0.731,-0.192,179.566
3009.729827991,-0.0088,-0.0166,1.0107,-0.731,-0.192,179.566
3009.829828118,-0.0088,-0.0166,1.0107,-0.731,-0.192,179.566
3009.929828228,-0.0088,-0.0166,1.0107,-0.731,-0.192,179.566
3010.029828356,-0.0088,-0.0166,1.0107,-0.731,-0.192,179.566
3010.129828409,-0.0088,-0.0166,1.0107,-0.731,-0.192,179.566
3010.2298285,-0.0088,-0.0166,1.0107,-0.731,-0.192,179.566
3010.329828535,-0.0088,-0.0166,1.0107,-0.731,-0.192,179.566
3010.429828588,-0.0088,-0.0166,1.0107,-0.731,-0.192,179.566
3010.529828622,-0.0088,-0.0166,1.0107,-0.731,-0.192,179.566
3010.629828693,-0.0088,-0.0166,1.0107,-0.731,-0.192,179.566
3010.729828765,-0.0088,-0.0166,1.0107,-0.731,-0.192,179.566
3010.829828892,-0.0088,-0.0166,1.0107,-0.731,-0.192,179.566
3010.929829001,-0.0088,-0.0166,1.0107,-0.731,-0.192,179.566
3011.029829053,-0.0088,-0.0166,1.0107,-0.731,-0.192,179.566
3011.129829143,-0.0088,-0.0166,1.0107,-0.731,-0.192,179.566
3011.229829196,-0.0088,-0.0166,1.0107,-0.731,-0.192,179.566
3011.329829286,-0.0088,-0.0166,1.0107,-0.731,-0.192,179.566
3011.429829338,-0.0088,-0.0166,1.0107,-0.731,-0.192,179.566
3011.529829372,-0.0088,-0.0166,1.0107,-0.731,-0.192,179.566
3011.629829405,-0.0088,-0.0166,1.0107,-0.731,-0.192,179.566
3011.729829476,-0.0088,-0.0166,1.0107,-0.731,-0.192,179.566
3011.829829547,-0.0088,-0.0166,1.0107,-0.731,-0.192,179.566
3011.929829654,-0.0088,-0.0166,1.0107,-0.731,-0.192,179.566
3012.029829762,-0.0088,-0.0166,1.0107,-0.731,-0.192,179.566
3012.129829796,-0.0088,-0.0166,1.0107,-0.731,-0.192,179.566
3012.229829848,-0.0088,-0.0166,1.0107,-0.731,-0.192,179.566
3012.329829862,-0.0088,-0.0166,1.0107,-0.731,-0.192,179.566
3012.429829951,-0.0088,-0.0166,1.0107,-0.731,-0.192,179.566
3012.529830058,-0.0088,-0.0166,1.0107,-0.731,-0.192,179.566
3012.629830146,-0.0088,-0.0166,1.0107,-0.731,-0.192,179.566
3012.729830161,-0.0088,-0.0166,1.0107,-0.731,-0.192,179.566
3012.829830268,-0.0088,-0.0166,1.0107,-0.731,-0.192,179.566
3012.929830356,-0.0088,-0.0166,1.0107,-0.731,-0.192,179.566
3013.02983037,-0.0088,-0.0166,1.0107,-0.731,-0.192,179.566
3013.12983044,-0.0088,-0.0166,1.0107,-0.731,-0.192,179.566
3013.229830566,-0.0088,-0.0166,1.0107,-0.731,-0.192,179.566
3013.329830579,-0.0088,-0.0166,1.0107,-0.731,-0.192,179.566
3013.429830648,-0.0088,-0.0166,1.0107,-0.731,-0.192,179.566
3013.529830681,-0.0088,-0.0166,1.0107,-0.731,-0.192,179.566
3013.629830713,-0.0088,-0.0166,1.0107,-0.731,-0.192,179.566
3013.729830745,-0.0088,-0.0166,1.0107,-0.731,-0.192,179.566
3013.829830814,-0.0088,-0.0166,1.0107,-0.731,-0.192,179.566
3013.929830828,-0.0088,-0.0166,1.0107,-0.731,-0.192,179.566
3014.029830934,-0.0088,-0.0166,1.0107,-0.731,-0.192,179.566
3014.12983104,-0.0088,-0.0166,1.0107,-0.731,-0.192,179.566
3014.22983109,-0.0088,-0.0166,1.0107,-0.731,-0.192,179.566
3014.329831177,-0.0088,-0.0166,1.0107,-0.731,-0.192,179.566
3014.42983119,-0.0088,-0.0166,1.0107,-0.731,-0.192,179.566
3014.529831277,-0.0088,-0.0166,1.0107,-0.731,-0.192,179.566
3014.629831345,-0.0088,-0.0166,1.0107,-0.731,-0.192,179.566
3014.729831451,-0.0088,-0.0166,1.0107,-0.731,-0.192,179.566
3014.829831482,-0.0088,-0.0166,1.0107,-0.731,-0.192,179.566
3014.929831921,-0.0088,-0.0166,1.0107,-0.731,-0.192,179.566
3015.029832026,-0.0088,-0.0166,1.0107,-0.731,-0.192,179.566
3015.129834595,-0.0088,-0.0166,1.0107,-0.731,-0.192,179.566
3015.229834922,-0.0088,-0.0166,1.0107,-0.731,-0.192,179.566
3015.329834934,-0.0088,-0.0166,1.0107,-0.731,-0.192,179.566
3015.42983502,-0.0088,-0.0166,1.0107,-0.731,-0.192,179.566
3015.529835069,-0.0088,-0.0166,1.0107,-0.731,-0.192,179.566
3015.629835081,-0.0088,-0.0166,1.0107,-0.731,-0.192,179.566
3015.729835093,-0.0088,-0.0166,1.0107,-0.731,-0.192,179.566
3015.829835143,-0.0088,-0.0166,1.0107,-0.731,-0.192,179.566
3015.929835192,-0.0088,-0.0166,1.0107,-0.731,-0.192,179.566
3016.029835222,-0.0088,-0.0166,1.0107,-0.731,-0.192,179.566
3016.129835271,-0.0088,-0.0166,1.0107,-0.731,-0.192,179.566
3016.229835376,-0.0088,-0.0166,1.0107,-0.731,-0.192,179.566
3016.329835461,-0.0088,-0.0166,1.0107,-0.731,-0.192,179.566
3016.42983551,-0.0088,-0.0166,1.0107,-0.731,-0.192,179.566
3016.529835558,-0.0088,-0.0166,1.0107,-0.731,-0.192,179.566
3016.629835643,-0.0088,-0.0166,1.0107,-0.731,-0.192,179.566
3016.729835747,-0.0088,-0.0166,1.0107,-0.731,-0.192,179.566
3016.829835777,-0.0088,-0.0166,1.0107,-0.731,-0.192,179.566
3016.929835788,-0.0088,-0.0166,1.0107,-0.731,-0.192,179.566
3017.029835836,-0.0088,-0.0166,1.0107,-0.731,-0.192,179.566
3017.129835885,-0.0088,-0.0166,1.0107,-0.731,-0.192,179.566
3017.22983597,-0.0088,-0.0166,1.0107,-0.731,-0.192,179.566
3017.329835981,-0.0088,-0.0166,1.0107,-0.731,-0.192,179.566
3017.429836028,-0.0088,-0.0166,1.0107,-0.731,-0.192,179.566
3017.529836057,-0.0088,-0.0166,1.0107,-0.731,-0.192,179.566
3017.62983616,-0.0088,-0.0166,1.0107,-0.731,-0.192,179.566
3017.729836282,-0.0088,-0.0166,1.0107,-0.731,-0.192,179.566
3017.829836292,-0.0088,-0.0166,1.0107,-0.731,-0.192,179.566
3017.929836377,-0.0088,-0.0166,1.0107,-0.731,-0.192,179.566
3018.029836424,-0.0088,-0.0166,1.0107,-0.731,-0.192,179.566
3018.129836472,-0.0088,-0.0166,1.0107,-0.731,-0.192,179.566
3018.229836556,-0.0088,-0.0166,1.0107,-0.731,-0.192,179.566
3018.329836622,-0.0088,-0.0166,1.0107,-0.731,-0.192,179.566
3018.429836724,-0.0088,-0.0166,1.0107,-0.731,-0.192,179.566
3018.529836789,-0.0088,-0.0166,1.0107,-0.731,-0.192,179.566
3018.629836799,-0.0088,-0.0166,1.0107,-0.731,-0.192,179.566
3018.729836864,-0.0088,-0.0166,1.0107,-0.731,-0.192,179.566
3018.82983693,-0.0088,-0.0166,1.0107,-0.731,-0.192,179.566
3018.929837032,-0.0088,-0.0166,1.0107,-0.731,-0.192,179.566
3019.029837042,-0.0088,-0.0166,1.0107,-0.731,-0.192,179.566
3019.129837163,-0.0088,-0.0166,1.0107,-0.731,-0.192,179.566
3019.229837246,-0.0088,-0.0166,1.0107,-0.731,-0.192,179.566
3019.329837348,-0.0088,-0.0166,1.0107,-0.731,-0.192,179.566
3019.429837413,-0.0088,-0.0166,1.0107,-0.731,-0.192,179.566
3019.529837514,-0.0088,-0.0166,1.0107,-0.731,-0.192,179.566
3019.629837523,-0.0088,-0.0166,1.0107,-0.731,-0.192,179.566
3019.729837532,-0.0088,-0.0166,1.0107,-0.731,-0.192,179.566
3019.829837578,-0.0088,-0.0166,1.0107,-0.731,-0.192,179.566
3019.929837587,-0.0088,-0.0166,1.0107,-0.731,-0.192,179.566
3020.029837596,-0.0088,-0.0166,1.0107,-0.731,-0.192,179.566
3020.129837679,-0.0088,-0.0166,1.0107,-0.731,-0.192,179.566
3020.229837799,-0.0088,-0.0166,1.0107,-0.731,-0.192,179.566
3020.329837826,-0.0088,-0.0166,1.0107,-0.731,-0.192,179.566
3020.429837853,-0.0088,-0.0166,1.0107,-0.731,-0.192,179.566
3020.529837972,-0.0088,-0.0166,1.0107,-0.731,-0.192,179.566
3020.629838036,-0.0088,-0.0166,1.0107,-0.731,-0.192,179.566
3020.729838136,-0.0088,-0.0166,1.0107,-0.731,-0.192,179.566
3020.8298382,-0.0088,-0.0166,1.0107,-0.731,-0.192,179.566
3020.929838245,-0.0088,-0.0166,1.0107,-0.731,-0.192,179.566
3021.029838254,-0.0088,-0.0166,1.0107,-0.731,-0.192,179.566
3021.129838317,-0.0088,-0.0166,1.0107,-0.731,-0.192,179.566
3021.229838344,-0.0088,-0.0166,1.0107,-0.731,-0.192,179.566
3021.329838444,-0.0088,-0.0166,1.0107,-0.731,-0.192,179.566
3021.429838507,-0.0088,-0.0166,1.0107,-0.731,-0.192,179.566
3021.52983857,-0.0088,-0.0166,1.0107,-0.731,-0.192,179.566
3021.629838633,-0.0088,-0.0166,1.0107,-0.731,-0.192,179.566
3021.729838733,-0.0088,-0.0166,1.0107,-0.731,-0.192,179.566
3021.829838741,-0.0088,-0.0166,1.0107,-0.731,-0.192,179.566
3021.929838859,-0.0088,-0.0166,1.0107,-0.731,-0.192,179.566
3022.029838867,-0.0088,-0.0166,1.0107,-0.731,-0.192,179.566
3022.129838893,-0.0088,-0.0166,1.0107,-0.731,-0.192,179.566
3022.2298389,-0.0088,-0.0166,1.0107,-0.731,-0.192,179.566
3022.329838907,-0.0088,-0.0166,1.0107,-0.731,-0.192,179.566
3022.429838932,-0.0088,-0.0166,1.0107,-0.731,-0.192,179.566
3022.529838939,-0.0088,-0.0166,1.0107,-0.731,-0.192,179.566
3022.629838983,-0.0088,-0.0166,1.0107,-0.731,-0.192,179.566
3022.729839063,-0.0088,-0.0166,1.0107,-0.731,-0.192,179.566
3022.829839126,-0.0088,-0.0166,1.0107,-0.731,-0.192,179.566
3022.929839243,-0.0088,-0.0166,1.0107,-0.731,-0.192,179.566
3023.029839361,-0.0088,-0.0166,1.0107,-0.731,-0.192,179.566
3023.12983946,-0.0088,-0.0166,1.0107,-0.731,-0.192,179.566
3023.229839523,-0.0088,-0.0166,1.0107,-0.731,-0.192,179.566
3023.329839529,-0.0088,-0.0166,1.0107,-0.731,-0.192,179.566
3023.429839627,-0.0088,-0.0166,1.0107,-0.731,-0.192,179.566
3023.52983967,-0.0088,-0.0166,1.0107,-0.731,-0.192,179.566
3023.62983975,-0.0088,-0.0166,1.0107,-0.731,-0.192,179.566
3023.729839775,-0.0088,-0.0166,1.0107,-0.731,-0.192,179.566
3023.829839781,-0.0088,-0.0166,1.0107,-0.731,-0.192,179.566
3023.929839879,-0.0088,-0.0166,1.0107,-0.731,-0.192,179.566
3024.029839904,-0.0088,-0.0166,1.0107,-0.731,-0.192,179.566
3024.129840002,-0.0088,-0.0166,1.0107,-0.731,-0.192,179.566
3024.229840008,-0.0088,-0.0166,1.0107,-0.731,-0.192,179.566
3024.329840106,-0.0088,-0.0166,1.0107,-0.731,-0.192,179.566
3024.429840185,-0.0088,-0.0166,1.0107,-0.731,-0.192,179.566
3024.529840228,-0.0088,-0.0166,1.0107,-0.731,-0.192,179.566
3024.629840251,-0.0088,-0.0166,1.0107,-0.731,-0.192,179.566
3024.729840349,-0.0088,-0.0166,1.0107,-0.731,-0.192,179.566
3024.829840391,-0.0088,-0.0166,1.0107,-0.731,-0.192,179.566
3024.929840489,-0.0088,-0.0166,1.0107,-0.731,-0.192,179.566
3025.029840587,-0.0088,-0.0166,1.0107,-0.731,-0.192,179.566
3025.131429199,-0.0088,-0.0166,1.0107,-0.731,-0.192,179.566
3025.231429204,-0.0088,-0.0166,1.0107,-0.731,-0.192,179.566
3025.331429227,-0.0088,-0.0166,1.0107,-0.731,-0.192,179.566
3025.43142925,-0.0088,-0.0166,1.0107,-0.731,-0.192,179.566
3025.531429292,-0.0088,-0.0166,1.0107,-0.731,-0.192,179.566
3025.631429389,-0.0088,-0.0166,1.0107,-0.731,-0.192,179.566
3025.731429449,-0.0088,-0.0166,1.0107,-0.731,-0.192,179.566
3025.831429509,-0.0088,-0.0166,1.0107,-0.731,-0.192,179.566
3025.931429569,-0.0088,-0.0166,1.0107,-0.731,-0.192,179.566
3026.031429629,-0.0088,-0.0166,1.0107,-0.731,-0.192,179.566
3026.131429633,-0.0088,-0.0166,1.0107,-0.731,-0.192,179.566
3026.231429712,-0.0088,-0.0166,1.0107,-0.731,-0.192,179.566
3026.331429716,-0.0088,-0.0166,1.0107,-0.731,-0.192,179.566
3026.431429775,-0.0088,-0.0166,1.0107,-0.731,-0.192,179.566
3026.531429797,-0.0088,-0.0166,1.0107,-0.731,-0.192,179.566
3026.631429893,-0.0088,-0.0166,1.0107,-0.731,-0.192,179.566
3026.731430008,-0.0088,-0.0166,1.0107,-0.731,-0.192,179.566
3026.831430049,-0.0088,-0.0166,1.0107,-0.731,-0.192,179.566
3026.931430164,-0.0088,-0.0166,1.0107,-0.731,-0.192,179.566
3027.031430205,-0.0088,-0.0166,1.0107,-0.731,-0.192,179.566
3027.131430227,-0.0088,-0.0166,1.0107,-0.731,-0.192,179.566
3027.231430323,-0.0088,-0.0166,1.0107,-0.731,-0.192,179.566
3027.331430382,-0.0088,-0.0166,1.0107,-0.731,-0.192,179.566
3027.431430422,-0.0088,-0.0166,1.0107,-0.731,-0.192,179.566
3027.531430536,-0.0088,-0.0166,1.0107,-0.731,-0.192,179.566
3027.631430631,-0.0088,-0.0166,1.0107,-0.731,-0.192,179.566
3027.73143069,-0.0088,-0.0166,1.0107,-0.731,-0.192,179.566
3027.831430693,-0.0088,-0.0166,1.0107,-0.731,-0.192,179.566
3027.931430788,-0.0088,-0.0166,1.0107,-0.731,-0.192,179.566
3028.03143081,-0.0088,-0.0166,1.0107,-0.731,-0.192,179.566
3028.131430813,-0.0088,-0.0166,1.0107,-0.731,-0.192,179.566
3028.231430908,-0.0088,-0.0166,1.0107,-0.731,-0.192,179.566
3028.331430929,-0.0088,-0.0166,1.0107,-0.731,-0.192,179.566
3028.43143095,-0.0088,-0.0166,1.0107,-0.731,-0.192,179.566
3028.531430989,-0.0088,-0.0166,1.0107,-0.731,-0.192,179.566
3028.631431047,-0.0088,-0.0166,1.0107,-0.731,-0.192,179.566
3028.731431123,-0.0088,-0.0166,1.0107,-0.731,-0.192,179.566
3028.831431144,-0.0088,-0.0166,1.0107,-0.731,-0.192,179.566
3028.931431183,-0.0088,-0.0166,1.0107,-0.731,-0.192,179.566
3029.031431241,-0.0088,-0.0166,1.0107,-0.731,-0.192,179.566
3029.13143128,-0.0088,-0.0166,1.0107,-0.731,-0.192,179.566
3029.231431394,-0.0088,-0.0166,1.0107,-0.731,-0.192,179.566
3029.331435636,-0.0088,-0.0166,1.0107,-0.731,-0.192,179.566
3029.431435749,-0.0088,-0.0166,1.0107,-0.731,-0.192,179.566
3029.531440805,-0.0088,-0.0166,1.0107,-0.731,-0.192,179.566
3029.6314409,-0.0088,-0.0166,1.0107,-0.731,-0.192,179.566
3029.731440975,-0.0088,-0.0166,1.0107,-0.731,-0.192,179.566
3029.831441088,-0.0088,-0.0166,1.0107,-0.731,-0.192,179.566
3029.931441108,-0.0088,-0.0166,1.0107,-0.731,-0.192,179.566
3030.031441109,-0.0088,-0.0166,1.0107,-0.731,-0.192,179.566
3030.131441203,-0.0088,-0.0166,1.0107,-0.731,-0.192,179.566
3030.231441223,-0.0088,-0.0166,1.0107,-0.731,-0.192,179.566
3030.331441224,-0.0088,-0.0166,1.0107,-0.731,-0.192,179.566
3030.431441318,-0.0088,-0.0166,1.0107,-0.731,-0.192,179.566
3030.531441374,-0.0088,-0.0166,1.0107,-0.731,-0.192,179.566
3030.631441393,-0.0088,-0.0166,1.0107,-0.731,-0.192,179.566
3030.731441505,-0.0088,-0.0166,1.0107,-0.731,-0.192,179.566
3030.83144158,-0.0088,-0.0166,1.0107,-0.731,-0.192,179.566
3030.931441655,-0.0088,-0.0166,1.0107,-0.731,-0.192,179.566
3031.031441711,-0.0088,-0.0166,1.0107,-0.731,-0.192,179.566
3031.131441786,-0.0088,-0.0166,1.0107,-0.731,-0.192,179.566
3031.231441879,-0.0088,-0.0166,1.0107,-0.731,-0.192,179.566
3031.331441898,-0.0088,-0.0166,1.0107,-0.731,-0.192,179.566
3031.431441954,-0.0088,-0.0166,1.0107,-0.731,-0.192,179.566
3031.531442046,-0.0088,-0.0166,1.0107,-0.731,-0.192,179.566
3031.631442083,-0.0088,-0.0166,1.0107,-0.731,-0.192,179.566
3031.731442102,-0.0088,-0.0166,1.0107,-0.731,-0.192,179.566
3031.831442176,-0.0088,-0.0166,1.0107,-0.731,-0.192,179.566
3031.931442195,-0.0088,-0.0166,1.0107,-0.731,-0.192,179.566
3032.031442195,-0.0088,-0.0166,1.0107,-0.731,-0.192,179.566
3032.131442324,-0.0088,-0.0166,1.0107,-0.731,-0.192,179.566
3032.231442343,-0.0088,-0.0166,1.0107,-0.731,-0.192,179.566
3032.331442398,-0.0088,-0.0166,1.0107,-0.731,-0.192,179.566
3032.431442508,-0.0088,-0.0166,1.0107,-0.731,-0.192,179.566
3032.531442582,-0.0088,-0.0166,1.0107,-0.731,-0.192,179.566
3032.631442618,-0.0088,-0.0166,1.0107,-0.731,-0.192,179.566
3032.731442654,-0.0088,-0.0166,1.0107,-0.731,-0.192,179.566
3032.831442709,-0.0088,-0.0166,1.0107,-0.731,-0.192,179.566
3032.93144282,-0.0088,-0.0166,1.0107,-0.731,-0.192,179.566
3033.031442838,-0.0088,-0.0166,1.0107,-0.731,-0.192,179.566
3033.131442874,-0.0088,-0.0166,1.0107,-0.731,-0.192,179.566
3033.231442929,-0.0088,-0.0166,1.0107,-0.731,-0.192,179.566
3033.331442983,-0.0088,-0.0166,1.0107,-0.731,-0.192,179.566
3033.431443037,-0.0088,-0.0166,1.0107,-0.731,-0.192,179.566
3033.531443073,-0.0088,-0.0166,1.0107,-0.731,-0.192,179.566
3033.631443127,-0.0088,-0.0166,1.0107,-0.731,-0.192,179.566
3033.731443218,-0.0088,-0.0166,1.0107,-0.731,-0.192,179.566
3033.831443346,-0.0088,-0.0166,1.0107,-0.731,-0.192,179.566
3033.931443382,-0.0088,-0.0166,1.0107,-0.731,-0.192,179.566
3034.031443473,-0.0088,-0.0166,1.0107,-0.731,-0.192,179.566
3034.13144349,-0.0088,-0.0166,1.0107,-0.731,-0.192,179.566
3034.2314436,-0.0088,-0.0166,1.0107,-0.731,-0.192,179.566
3034.331443672,-0.0088,-0.0166,1.0107,-0.731,-0.192,179.566
3034.431443781,-0.0088,-0.0166,1.0107,-0.731,-0.192,179.566
3034.531443835,-0.0088,-0.0166,1.0107,-0.731,-0.192,179.566
3034.631443944,-0.0088,-0.0166,1.0107,-0.731,-0.192,179.566
3034.731444053,-0.0088,-0.0166,1.0107,-0.731,-0.192,179.566
3034.831444069,-0.0088,-0.0166,1.0107,-0.731,-0.192,179.566
3034.931444122,-0.0088,-0.0166,1.0107,-0.731,-0.192,179.566
3035.031444176,-0.0088,-0.0166,1.0107,-0.731,-0.192,179.566
3035.131444266,-0.0088,-0.0166,1.0107,-0.731,-0.192,179.566
3035.231444301,-0.0088,-0.0166,1.0107,-0.731,-0.192,179.566
3035.331444335,-0.0088,-0.0166,1.0107,-0.731,-0.192,179.566
3035.431444444,-0.0088,-0.0166,1.0107,-0.731,-0.192,179.566
3035.531444478,-0.0088,-0.0166,1.0107,-0.731,-0.192,179.566
3035.631444586,-0.0088,-0.0166,1.0107,-0.731,-0.192,179.566
3035.731444602,-0.0088,-0.0166,1.0107,-0.731,-0.192,179.566
3035.83144471,-0.0088,-0.0166,1.0107,-0.731,-0.192,179.566
3035.9314448,-0.0088,-0.0166,1.0107,-0.731,-0.192,179.566
3036.031444834,-0.0088,-0.0166,1.0107,-0.731,-0.192,179.566
3036.131444887,-0.0088,-0.0166,1.0107,-0.731,-0.192,179.566
3036.231444903,-0.0088,-0.0166,1.0107,-0.731,-0.192,179.566
3036.331444973,-0.0088,-0.0166,1.0107,-0.731,-0.192,179.566
3036.431444988,-0.0088,-0.0166,1.0107,-0.731,-0.192,179.566
3036.531445059,-0.0088,-0.0166,1.0107,-0.731,-0.192,179.566
3036.631445074,-0.0088,-0.0166,1.0107,-0.731,-0.192,179.566
3036.731445144,-0.0088,-0.0166,1.0107,-0.731,-0.192,179.566
3036.831445215,-0.0088,-0.0166,1.0107,-0.731,-0.192,179.566
3036.931445248,-0.0088,-0.0166,1.0107,-0.731,-0.192,179.566
3037.031445337,-0.0088,-0.0166,1.0107,-0.731,-0.192,179.566
3037.131445445,-0.0088,-0.0166,1.0107,-0.731,-0.192,179.566
3037.231445515,-0.0088,-0.0166,1.0107,-0.731,-0.192,179.566
3037.331445585,-0.0088,-0.0166,1.0107,-0.731,-0.192,179.566
3037.431445674,-0.0088,-0.0166,1.0107,-0.731,-0.192,179.566
3037.531445725,-0.0088,-0.0166,1.0107,-0.731,-0.192,179.566
3037.631445758,-0.0088,-0.0166,1.0107,-0.731,-0.192,179.566
3037.731445772,-0.0088,-0.0166,1.0107,-0.731,-0.192,179.566
3037.83144586,-0.0088,-0.0166,1.0107,-0.731,-0.192,179.566
3037.931445967,-0.0088,-0.0166,1.0107,-0.731,-0.192,179.566
3038.031446,-0.0088,-0.0166,1.0107,-0.731,-0.192,179.566
3038.131446107,-0.0088,-0.0166,1.0107,-0.731,-0.192,179.566
3038.231446195,-0.0088,-0.0166,1.0107,-0.731,-0.192,179.566
3038.331446227,-0.0088,-0.0166,1.0107,-0.731,-0.192,179.566
3038.431446315,-0.0088,-0.0166,1.0107,-0.731,-0.192,179.566
3038.531446328,-0.0088,-0.0166,1.0107,-0.731,-0.192,179.566
3038.631446361,-0.0088,-0.0166,1.0107,-0.731,-0.192,179.566
3038.731446411,-0.0088,-0.0166,1.0107,-0.731,-0.192,179.566
3038.831446536,-0.0088,-0.0166,1.0107,-0.731,-0.192,179.566
3038.931446642,-0.0088,-0.0166,1.0107,-0.731,-0.192,179.566
3039.031446655,-0.0088,-0.0166,1.0107,-0.731,-0.192,179.566
3039.131446706,-0.0088,-0.0166,1.0107,-0.731,-0.192,179.566
3039.231446738,-0.0088,-0.0166,1.0107,-0.731,-0.192,179.566
3039.331446788,-0.0088,-0.0166,1.0107,-0.731,-0.192,179.566
3039.431446875,-0.0088,-0.0166,1.0107,-0.731,-0.192,179.566
3039.531446906,-0.0088,-0.0166,1.0107,-0.731,-0.192,179.566
3039.631446975,-0.0088,-0.0166,1.0107,-0.731,-0.192,179.566
3039.731447043,-0.0088,-0.0166,1.0107,-0.731,-0.192,179.566
3039.831447112,-0.0088,-0.0166,1.0107,-0.731,-0.192,179.566
3039.93144718,-0.0088,-0.0166,1.0107,-0.731,-0.192,179.566
3040.031447248,-0.0088,-0.0166,1.0107,-0.731,-0.192,179.566
3040.131447298,-0.0088,-0.0166,1.0107,-0.731,-0.192,179.566
3040.231465292,-0.0088,-0.0166,1.0107,-0.731,-0.192,179.566
3040.331465397,-0.0088,-0.0166,1.0107,-0.731,-0.192,179.566
3040.431465502,-0.0088,-0.0166,1.0107,-0.731,-0.192,179.566
3040.531465532,-0.0088,-0.0166,1.0107,-0.731,-0.192,179.566
3040.631465637,-0.0088,-0.0166,1.0107,-0.731,-0.192,179.566
3040.731465649,-0.0088,-0.0166,1.0107,-0.731,-0.192,179.566
3040.831465698,-0.0088,-0.0166,1.0107,-0.731,-0.192,179.566
3040.931465748,-0.0088,-0.0166,1.0107,-0.731,-0.192,179.566
3041.031465852,-0.0088,-0.0166,1.0107,-0.731,-0.192,179.566
3041.131465938,-0.0088,-0.0166,1.0107,-0.731,-0.192,179.566
3041.231465969,-0.0088,-0.0166,1.0107,-0.731,-0.192,179.566
3041.331465999,-0.0088,-0.0166,1.0107,-0.731,-0.192,179.566
3041.431466048,-0.0088,-0.0166,1.0107,-0.731,-0.192,179.566
3041.531466152,-0.0088,-0.0166,1.0107,-0.731,-0.192,179.566
3041.631466274,-0.0088,-0.0166,1.0107,-0.731,-0.192,179.566
3041.731466323,-0.0088,-0.0166,1.0107,-0.731,-0.192,179.566
3041.831466353,-0.0088,-0.0166,1.0107,-0.731,-0.192,179.566
3041.93146642,-0.0088,-0.0166,1.0107,-0.731,-0.192,179.566
3042.031466431,-0.0088,-0.0166,1.0107,-0.731,-0.192,179.566
3042.13146648,-0.0088,-0.0166,1.0107,-0.731,-0.192,179.566
3042.231466528,-0.0088,-0.0166,1.0107,-0.731,-0.192,179.566
3042.331466632,-0.0088,-0.0166,1.0107,-0.731,-0.192,179.566
3042.431466698,-0.0088,-0.0166,1.0107,-0.731,-0.192,179.566
3042.531472431,-0.0088,-0.0166,1.0107,-0.731,-0.192,179.566
3042.631472441,-0.0088,-0.0166,1.0107,-0.731,-0.192,179.566
3042.731472526,-0.0088,-0.0166,1.0107,-0.731,-0.192,179.566
3042.831472611,-0.0088,-0.0166,1.0107,-0.731,-0.192,179.566
3042.931472677,-0.0088,-0.0166,1.0107,-0.731,-0.192,179.566
3043.03147904,-0.0088,-0.0166,1.0107,-0.731,-0.192,179.566
3043.131479162,-0.0088,-0.0166,1.0107,-0.731,-0.192,179.566
3043.231479172,-0.0088,-0.0166,1.0107,-0.731,-0.192,179.566
3043.331479294,-0.0088,-0.0166,1.0107,-0.731,-0.192,179.566
3043.431479415,-0.0088,-0.0166,1.0107,-0.731,-0.192,179.566
3043.531479462,-0.0088,-0.0166,1.0107,-0.731,-0.192,179.566
3043.631479509,-0.0088,-0.0166,1.0107,-0.731,-0.192,179.566
3043.731479593,-0.0088,-0.0166,1.0107,-0.731,-0.192,179.566
3043.831481399,-0.0088,-0.0166,1.0107,-0.731,-0.192,179.566
3043.931481484,-0.0088,-0.0166,1.0107,-0.731,-0.192,179.566
3044.031481512,-0.0088,-0.0166,1.0107,-0.731,-0.192,179.566
3044.131487744,-0.0088,-0.0166,1.0107,-0.731,-0.192,179.566
3044.231487791,-0.0088,-0.0166,1.0107,-0.731,-0.192,179.566
3044.331487875,-0.0088,-0.0166,1.0107,-0.731,-0.192,179.566
3044.431492014,-0.0088,-0.0166,1.0107,-0.731,-0.192,179.566
3044.531498578,-0.0088,-0.0166,1.0107,-0.731,-0.192,179.566
3044.631498625,-0.0088,-0.0166,1.0107,-0.731,-0.192,179.566
3044.731503764,-0.0088,-0.0166,1.0107,-0.731,-0.192,179.566
3044.831503866,-0.0088,-0.0166,1.0107,-0.731,-0.192,179.566
3044.931503893,-0.0088,-0.0166,1.0107,-0.731,-0.192,179.566
3045.031503903,-0.0088,-0.0166,1.0107,-0.731,-0.192,179.566
3045.131503931,-0.0088,-0.0166,1.0107,-0.731,-0.192,179.566
3045.231503959,-0.0088,-0.0166,1.0107,-0.731,-0.192,179.566
3045.331504912,-0.0088,-0.0166,1.0107,-0.731,-0.192,179.566
3045.431505013,-0.0088,-0.0166,1.0107,-0.731,-0.192,179.566
3045.531505133,-0.0088,-0.0166,1.0107,-0.731,-0.192,179.566
3045.631505179,-0.0088,-0.0166,1.0107,-0.731,-0.192,179.566
3045.731505224,-0.0088,-0.0166,1.0107,-0.731,-0.192,179.566
3045.831505326,-0.0088,-0.0166,1.0107,-0.731,-0.192,179.566
3045.931505371,-0.0088,-0.0166,1.0107,-0.731,-0.192,179.566
3046.031505417,-0.0088,-0.0166,1.0107,-0.731,-0.192,179.566
3046.1315055,-0.0088,-0.0166,1.0107,-0.731,-0.192,179.566
3046.231505508,-0.0088,-0.0166,1.0107,-0.731,-0.192,179.566
3046.331505591,-0.0088,-0.0166,1.0107,-0.731,-0.192,179.566
3046.431505599,-0.0088,-0.0166,1.0107,-0.731,-0.192,179.566
3046.531505625,-0.0088,-0.0166,1.0107,-0.731,-0.192,179.566
3046.631505707,-0.0088,-0.0166,1.0107,-0.731,-0.192,179.566
3046.731505771,-0.0088,-0.0166,1.0107,-0.731,-0.192,179.566
3046.831505834,-0.0088,-0.0166,1.0107,-0.731,-0.192,179.566
3046.931505861,-0.0088,-0.0166,1.0107,-0.731,-0.192,179.566
3047.031505924,-0.0088,-0.0166,1.0107,-0.731,-0.192,179.566
3047.131505988,-0.0088,-0.0166,1.0107,-0.731,-0.192,179.566
3047.231506033,-0.0088,-0.0166,1.0107,-0.731,-0.192,179.566
3047.33150604,-0.0088,-0.0166,1.0107,-0.731,-0.192,179.566
3047.43150614,-0.0088,-0.0166,1.0107,-0.731,-0.192,179.566
3047.531506166,-0.0088,-0.0166,1.0107,-0.731,-0.192,179.566
3047.631506266,-0.0088,-0.0166,1.0107,-0.731,-0.192,179.566
3047.731506273,-0.0088,-0.0166,1.0107,-0.731,-0.192,179.566
3047.831506355,-0.0088,-0.0166,1.0107,-0.731,-0.192,179.566
3047.931506473,-0.0088,-0.0166,1.0107,-0.731,-0.192,179.566
3048.031506573,-0.0088,-0.0166,1.0107,-0.731,-0.192,179.566
3048.131506599,-0.0088,-0.0166,1.0107,-0.731,-0.192,179.566
3048.231506662,-0.0088,-0.0166,1.0107,-0.731,-0.192,179.566
3048.331506742,-0.0088,-0.0166,1.0107,-0.731,-0.192,179.566
3048.431506786,-0.0088,-0.0166,1.0107,-0.731,-0.192,179.566
3048.531506904,-0.0088,-0.0166,1.0107,-0.731,-0.192,179.566
3048.631506966,-0.0088,-0.0166,1.0107,-0.731,-0.192,179.566
3048.731507065,-0.0088,-0.0166,1.0107,-0.731,-0.192,179.566
3048.83150709,-0.0088,-0.0166,1.0107,-0.731,-0.192,179.566
3048.931507097,-0.0088,-0.0166,1.0107,-0.731,-0.192,179.566
3049.031507159,-0.0088,-0.0166,1.0107,-0.731,-0.192,179.566
3049.131507259,-0.0088,-0.0166,1.0107,-0.731,-0.192,179.566
3049.231507265,-0.0088,-0.0166,1.0107,-0.731,-0.192,179.566
3049.331511067,-0.0088,-0.0166,1.0107,-0.731,-0.192,179.566
3049.431511073,-0.0088,-0.0166,1.0107,-0.731,-0.192,179.566
3049.53151119,-0.0088,-0.0166,1.0107,-0.731,-0.192,179.566
3049.631511196,-0.0088,-0.0166,1.0107,-0.731,-0.192,179.566
3049.731511239,-0.0088,-0.0166,1.0107,-0.731,-0.192,179.566
3049.831511356,-0.0088,-0.0166,1.0107,-0.731,-0.192,179.566
3049.931511418,-0.0088,-0.0166,1.0107,-0.731,-0.192,179.566
3050.031511442,-0.0088,-0.0166,1.0107,-0.731,-0.192,179.566
3050.131511689,-0.0088,-0.0166,1.0107,-0.731,-0.192,179.566
3050.23151501,-0.0088,-0.0166,1.0107,-0.731,-0.192,179.566
3050.331515052,-0.0088,-0.0166,1.0107,-0.731,-0.192,179.566
3050.43151515,-0.0088,-0.0166,1.0107,-0.731,-0.192,179.566
3050.531515155,-0.0088,-0.0166,1.0107,-0.731,-0.192,179.566
3050.631515253,-0.0088,-0.0166,1.0107,-0.731,-0.192,179.566
3050.731515314,-0.0088,-0.0166,1.0107,-0.731,-0.192,179.566
3050.831515412,-0.0088,-0.0166,1.0107,-0.731,-0.192,179.566
3050.931515491,-0.0088,-0.0166,1.0107,-0.731,-0.192,179.566
3051.031521644,-0.0088,-0.0166,1.0107,-0.731,-0.192,179.566
3051.131521742,-0.0088,-0.0166,1.0107,-0.731,-0.192,179.566
3051.231528655,-0.0088,-0.0166,1.0107,-0.731,-0.192,179.566
3051.331528715,-0.0088,-0.0166,1.0107,-0.731,-0.192,179.566
