Time,AccX,AccY,AccZ,AngleX,AngleY,AngleZ,GyroX,GyroY,GyroZ,MagX,MagY,MagZ
33.626824923,-0.0454,0.0381,0.9614,2.252,1.544,8.509,0.1221,-0.1831,0.1831,-10675,5152,-213
33.72682496,-0.0283,0.0459,1.0029,2.252,1.544,8.531,0.1221,-0.2441,0.2441,-10663,5173,-176
33.826825015,-0.0483,0.0371,1.0215,2.252,1.538,8.553,0.0,-0.3662,0.1831,-10645,5189,-163
33.926825052,-0.0449,0.0391,1.0591,2.258,1.544,8.575,0.061,-0.3662,0.1221,-10638,5191,-155
34.026825163,-0.0386,0.042,1.0615,2.252,1.544,8.591,-0.061,-0.4272,0.1221,-10653,5188,-150
34.126825182,-0.0444,0.043,1.0786,2.252,1.549,8.613,0.0,-0.5493,0.1831,-10659,5178,-161
34.226825274,-0.0376,0.0391,1.0703,2.252,1.544,8.635,-0.1831,-0.6104,0.1831,-10637,5175,-185
34.326825367,-0.0337,0.0557,1.083,2.247,1.538,8.657,-0.2441,-0.9155,0.2441,-10632,5171,-170
34.426825404,-0.0532,0.0352,1.0674,2.247,1.538,8.674,-0.4883,-1.2207,0.3052,-10631,5174,-175
34.526825478,-0.0366,0.0522,1.0444,2.247,1.538,8.696,-0.5493,-0.9155,0.3662,-10629,5181,-162
34.626825552,-0.0312,0.0532,1.0024,2.247,1.544,8.718,-0.4883,-0.9155,0.2441,-10648,5182,-175
34.726825663,-0.0474,0.0288,0.9443,2.258,1.549,8.734,-0.1221,-0.3662,0.3052,-10631,5176,-165
34.826825792,-0.042,0.0371,1.0039,2.241,1.549,8.762,0.0,-0.5493,0.2441,-10620,5179,-141
34.926825792,-0.0347,0.0337,1.0425,2.258,1.538,8.784,0.1221,-0.3662,0.061,-10619,5197,-159
35.026825866,-0.0386,0.0557,1.0864,2.247,1.555,8.806,-0.3662,-0.4272,0.2441,-10626,5195,-174
35.126825922,-0.0542,0.0239,1.0537,2.247,1.566,8.828,-0.1831,-1.0376,0.2441,-10639,5171,-203
35.226825996,-0.0303,0.0659,1.04,2.23,1.566,8.844,-0.6104,-1.0376,0.2441,-10654,5184,-190
35.326826014,-0.0518,0.0229,1.04,2.241,1.571,8.866,-0.4272,-1.1597,0.3662,-10658,5158,-183
35.426826033,-0.0371,0.0571,1.0283,2.241,1.549,8.877,-0.5493,-1.2817,0.0,-10675,5162,-179
35.526826033,-0.0415,0.0308,1.0376,2.252,1.533,8.888,-0.3662,-1.0376,0.3662,-10673,5153,-198
35.626826088,-0.0469,0.0522,1.0078,2.247,1.555,8.926,-0.6104,-0.7935,0.4272,-10658,5148,-182
35.726826107,-0.0464,0.0537,0.9707,2.247,1.544,8.937,-0.1831,-0.9155,0.1221,-10645,5157,-196
35.826826125,-0.0459,0.0488,0.9404,2.247,1.538,8.954,-0.061,-0.3052,0.3662,-10653,5165,-198
35.926826162,-0.0356,0.0352,0.9971,2.247,1.555,8.987,0.0,-0.3662,0.3052,-10645,5178,-205
36.026826236,-0.0493,0.0107,1.0449,2.236,1.516,9.003,-0.1221,-0.6104,0.1221,-10651,5163,-218
36.126826273,0.0005,0.0664,1.1016,2.203,1.588,9.069,-0.6104,-0.8545,1.1597,-10636,5190,-195
36.226826292,-0.061,0.0225,1.0308,2.252,1.555,9.036,-0.4272,-2.6245,-0.8545,-10654,5177,-192
36.326826292,-0.0332,0.0635,1.0303,2.225,1.494,9.003,-0.7935,-0.9155,1.2817,-10670,5156,-185
36.426826384,-0.0308,0.0195,0.9893,2.247,1.571,9.146,-0.2441,-0.6104,1.0376,-10671,5137,-181
36.526826384,-0.0498,0.042,0.9873,2.23,1.516,9.13,-0.6104,-1.4038,-0.6714,-10675,5143,-204
36.626826421,-0.0591,0.0469,0.9546,2.236,1.494,9.113,0.1221,0.1831,0.6104,-10671,5132,-217
36.726826532,-0.0605,0.0498,0.9556,2.23,1.544,9.163,-0.1831,-0.6104,0.061,-10632,5169,-201
36.826826643,-0.0415,0.0444,0.9697,2.23,1.5,9.163,0.3052,-0.4883,0.2441,-10604,5172,-216
36.92682668,-0.0415,0.0371,1.0269,2.23,1.516,9.218,0.0,0.0,0.3052,-10599,5181,-206
37.02682668,-0.0342,0.0479,1.0747,2.23,1.511,9.223,0.0,-1.0986,-0.2441,-10588,5200,-219
37.126826736,-0.0488,0.0352,1.0342,2.23,1.505,9.223,-0.4272,-0.9766,0.6104,-10599,5202,-218
37.226826828,-0.0322,0.0449,1.0566,2.214,1.494,9.256,-0.3052,-1.0376,0.0,-10621,5202,-251
37.326826865,-0.0254,0.0454,1.0747,2.225,1.472,9.272,0.1221,-0.7935,0.6714,-10646,5222,-249
37.426826976,-0.0225,0.042,1.0488,2.236,1.511,9.338,-0.3662,-0.3052,0.2441,-10634,5232,-272
37.526827032,-0.0381,0.042,1.0444,2.23,1.483,9.3,-0.3662,-0.6714,-0.3662,-10610,5262,-273
37.626827069,-0.0508,0.0371,1.0063,2.23,1.505,9.322,-0.1221,-0.5493,0.7324,-10590,5279,-255
37.726827124,-0.0474,0.0435,0.9458,2.236,1.516,9.36,-0.1831,-0.9766,0.3052,-10568,5299,-257
37.826827143,-0.0391,0.0239,0.9795,2.241,1.494,9.377,0.1221,-0.4272,0.3052,-10572,5306,-245
37.926827217,-0.0146,0.0562,1.0625,2.203,1.489,9.41,0.0,-0.061,0.0,-10554,5336,-216
38.026827272,-0.0332,0.0303,1.0454,2.269,1.489,9.421,0.1831,-0.1831,0.0,-10571,5301,-208
38.126827346,-0.0601,0.0488,1.0698,2.214,1.5,9.421,-0.6714,-0.7324,0.1221,-10587,5284,-207
38.226827457,-0.0469,0.0435,0.9761,2.252,1.5,9.448,0.0,-0.7935,0.6104,-10625,5232,-204
38.32682755,-0.0508,0.0605,0.9736,2.225,1.494,9.492,-0.3052,-0.4272,0.3052,-10657,5196,-176
38.426827642,-0.0474,0.0269,0.9653,2.247,1.483,9.503,0.4883,-0.2441,0.0,-10655,5176,-151
38.526827661,-0.042,0.0459,1.0537,2.23,1.494,9.514,-0.2441,-0.5493,0.1221,-10637,5162,-186
38.626827772,-0.043,0.0332,1.0386,2.241,1.489,9.536,0.0,-1.1597,0.3052,-10629,5178,-196
38.726827809,-0.0552,0.0493,0.9922,2.23,1.494,9.564,-0.6104,-0.4272,0.4272,-10626,5206,-219
38.826827901,-0.0425,0.0352,0.9434,2.23,1.511,9.58,-0.4272,0.5493,0.061,-10622,5206,-236
38.926827994,-0.082,0.022,1.0322,2.23,1.489,9.602,0.6714,-0.8545,-0.061,-10622,5210,-228
39.026828086,-0.0371,0.0596,1.0605,2.236,1.467,9.602,-0.3052,-1.8921,0.4883,-10580,5256,-236
39.126828086,-0.0186,0.0649,1.0386,2.23,1.505,9.662,-0.1221,-1.0986,0.7935,-10565,5294,-228
39.226828197,-0.0322,0.0156,0.9526,2.241,1.494,9.679,-0.3662,-0.3052,-0.1831,-10562,5288,-220
39.326828271,-0.0498,0.0293,1.0063,2.225,1.478,9.679,0.061,0.3662,0.0,-10575,5276,-218
39.426828364,-0.0708,0.0254,1.0703,2.219,1.516,9.728,0.0,-1.2207,0.4883,-10612,5241,-219
39.526828401,-0.0371,0.0669,1.0195,2.236,1.489,9.717,-0.3662,-2.0752,0.1831,-10625,5205,-228
39.626828419,-0.0396,0.0566,1.0244,2.219,1.483,9.745,-0.4272,-0.6714,0.7324,-10639,5176,-214
39.726828475,-0.0649,0.0317,0.9546,2.241,1.505,9.789,-0.1831,-0.2441,0.0,-10637,5200,-204
39.826828586,-0.061,0.0562,0.9956,2.214,1.472,9.783,0.0,-0.3052,0.0,-10642,5190,-209
39.926828586,-0.064,0.0435,0.9199,2.236,1.494,9.811,0.1221,0.1831,0.3662,-10614,5229,-226
40.026828623,-0.0615,0.0405,0.9873,2.219,1.505,9.838,0.1831,-0.5493,0.0,-10592,5248,-224
40.126828641,-0.041,0.0229,0.9927,2.23,1.483,9.844,0.3052,-0.4883,0.1831,-10601,5261,-250
40.226828752,-0.0356,0.0322,1.0791,2.225,1.5,9.877,0.0,-0.4272,0.1221,-10599,5280,-267
40.326828882,-0.0249,0.0469,1.0645,2.208,1.478,9.877,0.1221,-0.3052,0.0,-10627,5261,-257
40.426828974,-0.0439,0.0454,1.0342,2.247,1.478,9.921,-0.6104,-0.1831,0.6714,-10660,5240,-201
40.52682903,-0.0591,0.0464,0.9883,2.219,1.483,9.932,-0.1221,-1.4648,0.061,-10645,5215,-216
40.626829122,-0.0444,0.0137,0.9434,2.236,1.467,9.943,0.0,-0.4883,0.6104,-10647,5234,-207
40.726829233,-0.0322,0.0381,1.0244,2.219,1.505,9.987,-0.061,-0.8545,0.1831,-10630,5244,-216
40.826829326,-0.0122,0.0396,1.084,2.208,1.461,9.987,0.3052,0.1831,0.0,-10638,5244,-225
40.926829344,-0.0522,0.0562,1.0107,2.241,1.467,10.042,-0.5493,0.2441,0.4883,-10629,5281,-245
41.026829381,-0.084,0.0322,0.9961,2.219,1.461,10.047,-0.1831,-1.6479,-0.061,-10632,5302,-280
41.126829418,-0.061,0.0449,0.9434,2.225,1.461,10.047,0.1221,-0.6714,0.4883,-10639,5327,-267
41.226829511,-0.0166,0.0703,1.0464,2.214,1.5,10.085,-0.8545,-0.4272,0.6104,-10644,5290,-238
41.326829529,-0.0459,0.0161,1.0127,2.23,1.494,10.113,-0.4272,-1.2207,0.061,-10681,5257,-230
41.426829566,-0.0674,0.0703,0.9648,2.23,1.483,10.129,-0.1831,-0.3052,0.4883,-10645,5230,-208
41.526829677,-0.0591,0.0366,0.9502,2.236,1.5,10.162,0.2441,-0.061,0.1221,-10659,5239,-225
41.626829751,-0.0571,0.0269,0.9985,2.236,1.489,10.162,0.1831,-0.3662,0.0,-10663,5236,-234
41.726829844,-0.064,0.0391,1.0474,2.23,1.511,10.19,-0.061,0.061,0.3052,-10645,5257,-257
41.826829918,-0.0591,0.0181,1.0718,2.23,1.494,10.245,0.2441,-1.8921,0.3052,-10624,5296,-273
41.926829936,-0.0327,0.0645,1.0059,2.23,1.439,10.217,-0.7324,-1.8311,0.2441,-10619,5329,-237
42.026829936,-0.0361,0.0723,0.9697,2.23,1.489,10.272,0.0,0.0,0.8545,-10624,5320,-246
42.126830047,-0.0396,0.0195,0.9761,2.236,1.511,10.289,-0.061,-0.2441,-0.4272,-10639,5279,-249
42.226830177,-0.0386,0.0537,0.998,2.23,1.489,10.283,0.1831,0.6104,0.0,-10662,5232,-253
42.326830232,-0.0859,0.0234,1.0605,2.23,1.522,10.355,0.3662,-1.5259,0.4883,-10670,5228,-258
42.426830306,-0.0103,0.0845,1.0166,2.23,1.478,10.327,-0.4883,-2.8076,0.1221,-10652,5256,-245
42.526830418,-0.0244,0.0288,1.0171,2.225,1.5,10.371,-0.5493,-0.4272,1.0986,-10648,5247,-215
42.62683051,-0.0459,0.0303,1.0103,2.236,1.522,10.415,-0.4272,-0.6104,-0.1221,-10632,5255,-219
42.726830547,-0.0259,0.0425,0.9985,2.219,1.461,10.393,0.0,0.3052,0.061,-10606,5275,-253
42.826830584,-0.0972,0.0522,1.0054,2.241,1.494,10.448,0.2441,-0.061,0.4272,-10610,5318,-252
42.926830584,-0.0493,0.0249,1.0552,2.225,1.489,10.459,-0.3052,-1.8921,0.061,-10632,5302,-244
43.026830658,0.0073,0.0806,0.9785,2.236,1.489,10.47,0.1221,-0.061,0.4883,-10646,5272,-207
43.126830676,-0.0635,0.0273,0.9941,2.225,1.505,10.497,-0.4272,-0.8545,0.061,-10661,5239,-193
43.226830713,-0.064,0.0488,1.0303,2.236,1.494,10.503,0.0,-0.4272,0.1221,-10665,5242,-220
43.32683075,-0.0107,0.0791,0.9961,2.219,1.489,10.536,-0.3662,-0.6104,0.4883,-10634,5239,-223
43.426830861,-0.0757,-0.0435,1.0596,2.23,1.494,10.558,-0.3662,-1.1597,0.3662,-10609,5285,-242
43.526830861,-0.0381,0.0757,1.0156,2.192,1.467,10.569,0.4272,0.0,0.0,-10597,5331,-271
43.626830898,-0.0483,0.022,0.9888,2.241,1.483,10.602,-0.2441,-0.3052,0.4272,-10612,5331,-258
43.726830954,-0.0181,0.0801,1.0137,2.192,1.489,10.607,-0.061,-0.3662,-0.1221,-10642,5287,-240
43.826831009,-0.0708,-0.0083,1.0015,2.23,1.489,10.618,0.0,-1.2207,0.4272,-10670,5235,-214
43.926831065,-0.0356,0.0947,0.9966,2.203,1.505,10.662,-0.061,-0.4272,0.4272,-10650,5216,-216
44.026831194,-0.0405,0.0474,0.9907,2.203,1.456,10.673,-0.7324,-1.5869,0.0,-10641,5232,-221
44.126831287,-0.0273,0.0288,0.9878,2.225,1.478,10.695,-0.061,-0.6714,0.6104,-10637,5250,-230
44.226831324,-0.0566,0.0469,1.0083,2.214,1.511,10.717,-0.6104,-1.4648,0.0,-10603,5304,-281
44.326831398,-0.0371,0.0508,1.0708,2.225,1.505,10.717,0.0,-0.3662,0.3052,-10576,5351,-248
44.426831453,-0.0132,0.0845,1.001,2.214,1.494,10.761,-0.4272,0.0,0.3662,-10562,5342,-233
44.526831509,-0.0762,-0.0352,1.0703,2.219,1.489,10.778,-0.061,-0.7935,0.0,-10599,5288,-213
44.626831546,-0.0679,0.063,0.9536,2.208,1.478,10.789,0.2441,-0.1831,0.1831,-10651,5242,-188
44.726831564,-0.0322,0.0708,1.0127,2.203,1.483,10.811,0.0,-1.77,0.4883,-10672,5226,-219
44.82683162,-0.0005,0.0376,0.9878,2.219,1.478,10.844,-0.3052,0.3052,0.3662,-10652,5223,-212
44.926831694,-0.0786,0.0332,0.9985,2.208,1.483,10.865,0.0,-0.4272,-0.1221,-10623,5233,-241
45.026831712,-0.0703,0.0361,0.9985,2.219,1.472,10.86,-0.1831,-0.4272,0.1221,-10592,5303,-282
45.126831823,-0.0156,0.0591,1.0122,2.214,1.483,10.893,-0.1221,-0.4883,0.6104,-10578,5337,-286
45.226831934,-0.0308,-0.0024,1.0615,2.208,1.527,10.926,-0.7935,0.0,0.4272,-10599,5323,-226
45.326832008,-0.0508,0.0337,0.9854,2.214,1.467,10.948,0.2441,-1.1597,-0.1221,-10633,5269,-220
45.426832008,-0.0273,0.0571,0.9858,2.208,1.45,10.931,-0.1221,-0.4883,0.2441,-10646,5241,-183
45.526832064,-0.0571,0.0254,0.998,2.208,1.494,10.986,0.0,-1.1597,0.7324,-10622,5237,-191
45.626832082,-0.0103,0.0566,0.9585,2.214,1.5,11.003,0.0,-0.6104,0.0,-10617,5248,-218
45.726832193,-0.0166,0.0664,0.9956,2.197,1.478,11.008,-0.2441,-0.3662,0.2441,-10597,5279,-231
45.82683223,-0.0283,0.0845,0.9868,2.186,1.549,11.041,-0.8545,0.6714,0.3662,-10600,5321,-272
45.92683223,-0.0815,-0.0093,1.0088,2.225,1.489,11.047,0.6104,-1.6479,-0.1831,-10602,5305,-229
46.026832267,-0.0234,0.0752,0.9629,2.208,1.472,11.074,-0.3662,-0.1831,0.7324,-10635,5267,-219
46.126832323,-0.0127,0.0513,1.0,2.214,1.494,11.135,0.1221,-1.0376,0.4883,-10632,5236,-239
46.226832341,-0.0176,0.0674,1.0176,2.203,1.483,11.124,-0.3662,-0.3662,-0.3052,-10635,5263,-223
46.326832452,-0.0737,-0.001,1.0522,2.208,1.483,11.135,0.0,-0.3052,0.3052,-10629,5270,-213
46.426832452,-0.0713,0.0347,1.02,2.214,1.489,11.173,-0.3052,-0.6104,0.2441,-10602,5313,-228
46.526832526,-0.0405,0.0615,0.9658,2.208,1.478,11.19,0.1831,-0.6104,0.2441,-10595,5309,-224
46.626832545,-0.0244,0.0752,0.981,2.214,1.478,11.206,0.0,-0.7324,0.2441,-10610,5285,-235
46.7268326,-0.0205,-0.0156,1.0352,2.208,1.483,11.223,-0.1221,-0.8545,0.1221,-10653,5251,-217
46.826832693,-0.0327,0.0703,1.041,2.208,1.478,11.239,-0.1221,-0.4883,0.3662,-10662,5217,-224
46.926832804,-0.0581,0.0142,1.042,2.203,1.472,11.261,-0.3662,-0.5493,0.1831,-10639,5230,-232
47.026832822,-0.0488,0.0078,1.0376,2.214,1.472,11.288,-0.1221,-0.6104,0.4272,-10592,5332,-274
47.126832841,0.0068,0.0635,0.9517,2.203,1.472,11.31,-0.1221,-0.7324,0.3662,-10594,5330,-230
47.226832896,0.0015,0.062,0.9883,2.175,1.445,11.327,0.061,-0.1221,0.1221,-10617,5280,-233
47.32683297,0.0547,0.0337,0.8618,2.23,1.467,11.365,0.0,0.4883,0.7935,-10595,5288,-237
47.426833044,-0.0151,0.0488,0.9756,2.181,1.467,11.376,0.1831,-0.5493,-0.3662,-10579,5333,-248
47.526833044,-0.1011,-0.0186,0.9663,2.208,1.439,11.371,-0.1221,-0.2441,0.3662,-10630,5286,-204
47.6268331,-0.0674,0.0435,1.0435,2.192,1.483,11.431,-0.3662,-0.9155,0.4272,-10667,5238,-223
47.726833155,-0.0532,0.0498,1.0229,2.203,1.445,11.437,0.0,-0.8545,-0.1831,-10656,5218,-229
47.826833192,-0.041,0.0586,1.0527,2.192,1.456,11.453,-0.1831,-0.061,0.3662,-10625,5279,-244
47.926833322,-0.0464,0.0303,1.0068,2.208,1.467,11.486,-0.1221,-0.7935,0.061,-10607,5321,-283
48.02683334,-0.0557,0.0469,1.0269,2.203,1.439,11.492,-0.3052,-0.7324,0.2441,-10628,5301,-260
48.126833359,-0.0503,0.0391,1.0215,2.214,1.467,11.53,-0.061,-0.2441,0.3662,-10671,5290,-239
48.226833414,-0.0225,0.0669,0.9702,2.203,1.461,11.541,0.1221,-0.5493,-0.061,-10661,5259,-235
48.326833451,-0.0532,0.0225,1.0068,2.219,1.456,11.547,0.0,-0.061,0.2441,-10654,5241,-252
48.426833451,-0.04,0.0571,1.0269,2.197,1.478,11.58,-0.3662,-0.1831,0.3052,-10616,5247,-250
48.526833507,-0.061,0.0425,0.9648,2.208,1.461,11.607,0.2441,0.0,0.0,-10583,5315,-262
48.626833562,-0.0239,0.0713,0.999,2.175,1.489,11.624,-0.4272,0.3052,0.4883,-10583,5344,-257
48.726833673,-0.0674,0.0234,0.979,2.214,1.483,11.651,0.3662,-1.2817,0.0,-10638,5322,-238
48.826833747,-0.0625,0.0781,0.9995,2.203,1.445,11.646,-0.6714,-0.7324,0.4272,-10689,5266,-203
48.926833858,-0.0454,0.0405,1.0107,2.203,1.478,11.706,0.0,-0.1831,0.7324,-10694,5224,-201
49.026833932,-0.0732,0.0278,0.959,2.203,1.472,11.722,0.0,-0.7935,-0.2441,-10660,5219,-220
49.126833969,-0.064,0.0498,0.9751,2.197,1.45,11.722,0.061,-0.3052,0.4272,-10662,5211,-247
49.226834043,-0.0659,0.0547,0.9565,2.181,1.516,11.766,-0.3662,0.1831,0.3662,-10647,5233,-256
49.326834043,-0.0708,0.0239,0.9546,2.208,1.478,11.783,0.6714,-0.6714,-0.3052,-10621,5306,-282
49.42683408,-0.0234,0.0562,1.0078,2.203,1.439,11.788,-0.7324,-1.0376,0.6104,-10599,5346,-287
49.526834117,-0.0405,0.0537,1.0063,2.214,1.478,11.843,0.061,-0.3662,0.6104,-10599,5358,-258
49.626834228,-0.0552,0.0298,1.0317,2.192,1.456,11.849,-0.6714,-1.2817,0.0,-10622,5293,-219
49.726834339,-0.0566,0.0532,1.0308,2.203,1.456,11.865,0.0,-0.6714,0.4272,-10662,5250,-217
49.826834395,-0.0278,-0.0054,1.0708,2.208,1.472,11.898,-0.5493,-0.4272,0.3662,-10664,5225,-223
49.926834469,-0.0352,0.0757,0.9717,2.208,1.461,11.909,0.4272,-0.061,0.0,-10670,5226,-223
50.026834561,-0.0542,0.0571,0.9663,2.208,1.467,11.937,-0.2441,-0.1831,0.3052,-10650,5257,-246
50.126834672,-0.0771,0.0078,1.0034,2.203,1.456,11.948,-0.3052,-1.4038,0.1831,-10622,5275,-222
50.226834691,-0.0645,0.062,0.9834,2.214,1.478,11.97,0.0,0.0,0.1221,-10583,5338,-242
50.326834709,-0.022,0.061,1.0225,2.203,1.472,11.997,-0.1831,-1.1597,0.3662,-10548,5348,-258
50.426834728,-0.0308,0.0342,0.9824,2.208,1.478,12.008,-0.061,0.2441,0.061,-10583,5324,-218
50.526834746,-0.0635,-0.0083,1.0269,2.203,1.472,12.03,-0.1221,-0.7324,0.1831,-10652,5239,-205
50.626834746,-0.0737,0.0469,1.0254,2.203,1.467,12.052,-0.1831,-0.7935,0.3052,-10668,5218,-212
50.726834857,-0.0288,0.0659,0.9814,2.203,1.478,12.068,0.0,-0.3052,0.3052,-10675,5201,-207
50.826834968,-0.0557,0.085,0.9932,2.175,1.456,12.096,-0.1221,-0.3662,0.0,-10645,5240,-260
50.926835061,-0.0347,0.0464,0.9526,2.225,1.45,12.112,0.5493,0.0,0.2441,-10605,5321,-272
51.026835079,-0.0566,0.0063,1.0161,2.181,1.461,12.134,-0.3662,-0.7324,0.0,-10590,5342,-261
51.126835172,-0.0464,0.0444,1.0361,2.208,1.45,12.129,0.1221,-1.0376,0.2441,-10643,5291,-227
51.226835172,-0.0396,0.0146,1.0088,2.192,1.483,12.173,-0.6104,-0.7935,0.5493,-10618,5241,-217
51.326835209,-0.0254,0.0083,0.9658,2.208,1.489,12.2,0.2441,-0.2441,0.0,-10601,5265,-245
51.426835227,-0.1016,0.0283,1.0034,2.17,1.439,12.206,0.0,0.7935,-0.1831,-10600,5337,-251
51.526835338,-0.1284,-0.001,1.0205,2.219,1.434,12.233,0.1831,0.0,0.1221,-10616,5290,-233
51.626835449,-0.0278,0.0444,0.9863,2.175,1.45,12.244,-0.4272,-0.9155,0.3052,-10688,5195,-186
51.726835542,-0.0098,0.0342,0.9956,2.186,1.45,12.272,-0.3052,-1.6479,0.9155,-10757,5139,-144
51.826835634,-0.0312,0.0342,1.0293,2.181,1.45,12.31,-0.3662,-0.6104,0.3662,-10686,5194,-198
51.926835634,-0.043,0.0508,1.0142,2.181,1.45,12.321,0.0,0.3052,0.061,-10668,5228,-202
52.026835727,-0.0776,0.1045,1.0103,2.203,1.483,12.332,0.1221,-0.1831,-0.061,-10714,5175,-177
52.126835745,-0.0586,0.0107,0.9966,2.219,1.472,12.343,-0.6104,-1.0376,0.3052,-10726,5163,-181
52.226835819,-0.0435,0.0391,0.9985,2.17,1.494,12.387,0.4883,-0.6104,0.4883,-10728,5147,-174
52.326835912,-0.0435,0.0752,0.9688,2.214,1.483,12.393,-0.2441,-0.8545,0.0,-10657,5188,-212
52.426835949,-0.041,0.0562,1.0269,2.186,1.494,12.398,-0.2441,-0.4272,0.4883,-10561,5283,-244
52.526835986,-0.0498,0.0356,0.9248,2.203,1.505,12.453,-0.5493,0.3052,0.1831,-10561,5317,-242
52.626836004,-0.0679,0.022,1.0112,2.175,1.489,12.486,0.3662,-0.3662,-0.1831,-10574,5285,-200
52.726836004,-0.0449,0.0,0.9907,2.214,1.45,12.464,0.1221,-0.8545,0.061,-10602,5211,-174
52.826836115,-0.042,0.085,1.0298,2.175,1.489,12.491,-0.2441,-0.6104,0.7935,-10628,5195,-191
52.926836208,-0.0425,0.0156,0.9902,2.203,1.494,12.53,-0.1221,-0.9766,0.0,-10639,5205,-216
53.026836282,-0.0049,0.0244,1.0488,2.181,1.45,12.524,0.061,-0.1831,0.061,-10615,5247,-271
53.1268363,0.0005,0.0679,1.0542,2.186,1.478,12.563,-1.0986,0.3662,0.3662,-10593,5294,-259
53.226836319,-0.0742,0.0215,1.0278,2.186,1.472,12.585,0.061,-1.0986,0.0,-10579,5312,-260
53.326836356,-0.0718,0.0586,0.9404,2.197,1.439,12.568,-0.1221,-0.8545,0.3662,-10616,5254,-217
53.426836411,-0.0254,0.0693,1.0269,2.175,1.472,12.623,-0.7324,-0.3662,0.9155,-10601,5265,-204
53.526836429,-0.0312,0.0361,0.9458,2.197,1.478,12.651,0.0,-0.3052,0.0,-10630,5242,-215
53.626836485,-0.0596,0.0327,0.9604,2.181,1.439,12.64,0.061,0.3662,0.0,-10634,5246,-229
53.726836522,-0.0591,0.0337,1.063,2.192,1.456,12.678,0.0,-0.4883,0.3662,-10607,5280,-232
53.826836577,-0.0459,0.0591,1.0068,2.192,1.45,12.695,-0.1831,-1.3428,0.1221,-10607,5307,-272
53.926836596,-0.0688,0.0498,0.9629,2.197,1.456,12.711,-0.1221,-0.1221,0.3662,-10641,5283,-246
54.026836614,-0.0361,0.0474,1.0698,2.192,1.472,12.733,-0.1221,-0.3662,0.0,-10664,5233,-217
54.12683667,-0.0649,0.0308,1.0542,2.203,1.45,12.75,-0.3662,-1.2207,0.1831,-10667,5228,-236
54.226836707,-0.0508,0.0908,1.0127,2.192,1.456,12.772,-0.5493,-0.7935,0.5493,-10610,5239,-225
54.326836781,-0.0586,0.0527,0.958,2.203,1.467,12.794,0.061,-0.3052,0.1831,-10569,5294,-237
54.426836873,-0.0518,0.0308,0.9766,2.197,1.456,12.816,0.1221,-0.1221,0.061,-10574,5350,-248
54.526836984,-0.0415,0.0459,1.0659,2.203,1.467,12.827,0.0,-0.6714,0.1221,-10593,5329,-233
54.626837003,-0.0562,0.0386,1.063,2.197,1.45,12.849,-0.9155,-1.9531,0.4272,-10634,5261,-190
54.726837077,-0.043,0.0869,1.0083,2.192,1.461,12.865,0.0,-0.5493,0.5493,-10658,5210,-230
54.826837188,-0.0444,0.0571,0.9653,2.208,1.472,12.903,-0.2441,0.0,-0.061,-10665,5211,-237
54.926837299,-0.0669,0.0229,0.9849,2.197,1.456,12.898,0.2441,-0.1221,-0.061,-10656,5229,-237
55.02683741,-0.0322,0.0396,0.9814,2.219,1.472,12.931,0.1831,-0.2441,0.4272,-10611,5291,-256
55.126837447,-0.042,0.1001,1.0132,2.186,1.467,12.958,-0.2441,-1.4648,0.2441,-10592,5323,-252
55.22683754,-0.0435,-0.0288,1.0942,2.192,1.456,12.98,-0.9155,-0.8545,0.4883,-10614,5273,-220
55.326837632,-0.042,0.0811,0.9873,2.197,1.467,13.008,0.6104,0.0,0.0,-10618,5239,-214
55.426837706,-0.0337,0.0269,1.0532,2.208,1.456,13.008,-0.5493,-0.7935,0.061,-10615,5251,-221
55.526837706,-0.02,0.0562,0.9702,2.186,1.472,13.024,0.1831,0.3052,0.3052,-10549,5317,-256
55.626837743,-0.064,-0.0005,0.9917,2.208,1.472,13.057,-0.2441,-1.4038,0.2441,-10566,5340,-235
55.726837817,-0.0576,0.082,0.9688,2.192,1.467,13.074,0.061,-0.1831,0.3662,-10624,5263,-176
55.82683791,0.0,0.0493,1.0073,2.203,1.467,13.096,-0.3662,-1.1597,0.3662,-10636,5211,-185
55.926837928,-0.0439,0.0386,0.9971,2.197,1.467,13.107,-0.1221,0.0,0.061,-10645,5197,-205
56.026838039,-0.0713,0.0518,1.0112,2.203,1.461,13.134,-0.1221,-0.1831,0.2441,-10602,5265,-256
56.126838113,-0.064,0.0386,1.0435,2.203,1.478,13.156,0.0,-0.4883,0.061,-10594,5306,-257
56.226838187,-0.0161,0.063,1.021,2.203,1.467,13.162,-0.2441,-0.7935,0.3662,-10619,5279,-228
56.32683828,-0.064,-0.041,1.0537,2.208,1.489,13.195,-0.061,-0.4272,0.3052,-10626,5223,-214
56.426838317,-0.0586,0.0474,1.0361,2.203,1.478,13.217,0.061,-0.4272,0.1221,-10633,5245,-242
56.526838391,-0.0322,0.0488,1.0645,2.186,1.522,13.228,-0.5493,-0.3052,0.4883,-10596,5274,-248
56.626838409,-0.0117,0.0742,1.0142,2.203,1.522,13.266,0.2441,-0.6714,-0.1831,-10564,5339,-248
56.726838409,-0.0605,-0.0322,1.0288,2.214,1.461,13.25,-0.4272,-0.5493,0.1221,-10578,5320,-225
56.826838483,-0.0571,0.0493,0.9912,2.203,1.489,13.315,0.3662,0.6104,0.6104,-10604,5266,-191
56.926838502,-0.0405,0.0439,1.0454,2.214,1.5,13.326,-0.2441,-1.77,-0.1221,-10633,5240,-179
57.026838557,-0.0054,0.0679,1.002,2.197,1.472,13.315,0.0,0.0,0.3052,-10627,5223,-206
57.126838613,-0.0654,-0.0396,1.0122,2.219,1.516,13.365,-0.6104,-0.4272,0.4272,-10595,5287,-253
57.226838742,-0.0723,0.061,1.0264,2.175,1.511,13.392,0.4272,-0.8545,0.1831,-10604,5286,-237
57.326838835,-0.0356,0.0244,1.019,2.225,1.483,13.381,-0.3662,-1.2817,0.1831,-10625,5230,-209
57.426838835,-0.019,0.0659,1.0654,2.186,1.494,13.42,-0.2441,0.0,0.4883,-10615,5234,-201
57.526838964,-0.0503,0.0376,0.9521,2.219,1.511,13.447,0.4272,-0.1221,-0.061,-10596,5276,-238
57.626838983,-0.0244,0.0635,1.0186,2.175,1.467,13.447,-0.3662,-1.4648,0.3052,-10556,5336,-271
57.726839038,-0.0171,0.064,0.9907,2.219,1.489,13.497,0.0,0.0,0.5493,-10585,5321,-219
57.826839149,-0.0674,-0.0234,1.0688,2.192,1.494,13.513,-0.3052,-0.8545,0.0,-10627,5211,-212
57.926839223,-0.0713,0.0469,1.0107,2.203,1.467,13.519,0.0,-0.4883,0.3052,-10643,5190,-225
58.026839279,-0.0464,0.0518,1.002,2.208,1.494,13.552,0.0,0.1221,0.2441,-10635,5231,-249
58.126839334,-0.0298,0.082,1.0098,2.197,1.472,13.568,-0.1831,-1.2207,0.2441,-10586,5296,-263
58.22683939,-0.0347,0.0122,0.9937,2.208,1.489,13.59,0.0,0.0,0.1831,-10572,5318,-241
58.326839501,-0.04,-0.022,1.0073,2.203,1.483,13.596,0.0,-0.7935,0.061,-10598,5267,-200
58.426839593,-0.0459,0.0679,1.0347,2.197,1.483,13.596,0.061,-0.5493,0.0,-10607,5257,-205
58.526839612,-0.0459,0.041,1.0396,2.208,1.505,13.634,-0.2441,-0.6104,0.5493,-10554,5275,-212
58.626839686,-0.0405,0.0869,1.0264,2.208,1.494,13.661,-0.3052,-0.9155,0.3662,-10549,5317,-223
58.726839741,-0.0415,0.0479,0.9995,2.208,1.511,13.705,-0.1831,-0.1221,0.6104,-10605,5297,-225
58.826839852,-0.0547,-0.0059,1.0703,2.203,1.489,13.738,-0.061,-1.3428,0.0,-10655,5224,-188
58.926839889,-0.0342,0.0317,1.0024,2.214,1.472,13.722,-0.1831,-0.9155,0.0,-10653,5208,-207
59.026839982,-0.0303,0.0532,1.0068,2.203,1.505,13.733,-0.1221,0.0,0.2441,-10610,5255,-249
59.126840056,-0.041,0.0366,1.0137,2.208,1.505,13.771,0.0,-0.3052,0.2441,-10577,5332,-256
59.226840093,-0.021,0.0513,1.002,2.197,1.472,13.782,-0.3052,-0.5493,0.0,-10590,5291,-207
59.32684013,-0.0532,0.064,0.9717,2.203,1.467,13.788,0.0,-0.061,0.3662,-10608,5258,-234
59.426840241,-0.0586,-0.0264,1.0479,2.208,1.494,13.832,-0.1831,-1.4038,0.4272,-10595,5253,-201
59.526840259,-0.0312,0.0669,1.0132,2.197,1.494,13.848,0.1221,-0.1831,0.0,-10579,5291,-220
59.626840278,-0.0322,0.0381,1.0703,2.197,1.522,13.876,-0.3052,-0.5493,0.3662,-10556,5338,-221
59.726840315,-0.0322,0.0854,1.0127,2.208,1.505,13.898,-0.061,-0.1831,0.1221,-10592,5309,-223
59.826840333,-0.0669,0.0166,1.0615,2.203,1.494,13.903,-0.5493,-0.9766,0.2441,-10664,5221,-205
59.926840426,-0.0356,0.0405,0.9854,2.203,1.494,13.936,0.1831,-0.4272,0.1831,-10668,5204,-205
60.026840426,-0.0122,0.063,0.9746,2.192,1.483,13.942,0.1831,-0.1831,0.1221,-10632,5224,-213
60.126840426,-0.0483,0.0439,0.9536,2.197,1.505,13.953,-0.061,0.2441,-0.1831,-10595,5280,-256
60.226840555,-0.0674,0.0532,1.0273,2.192,1.489,13.964,0.0,-0.3662,0.3052,-10579,5334,-248
60.326840629,-0.02,0.0454,1.0469,2.214,1.5,14.019,-0.061,-0.8545,0.2441,-10603,5301,-219
60.426840648,-0.0288,0.0381,1.0566,2.197,1.494,14.03,-0.3662,-1.0986,0.3052,-10611,5247,-195
60.526840703,-0.0542,0.0581,0.9814,2.203,1.516,14.052,-0.3052,-0.6714,0.5493,-10622,5216,-193
60.626840722,-0.0581,0.0522,0.9663,2.197,1.494,14.068,0.0,-0.3052,0.061,-10610,5242,-221
60.72684074,-0.0381,0.0391,1.0454,2.203,1.494,14.095,-0.061,-0.061,0.061,-10607,5299,-250
60.826840795,-0.0093,0.0879,1.0449,2.197,1.489,14.106,-0.2441,-1.2207,-0.1221,-10568,5344,-233
60.926840888,-0.0566,0.0659,0.9731,2.197,1.472,14.112,-0.3662,0.0,0.6714,-10575,5334,-221
61.026840906,-0.0449,0.0156,1.0225,2.203,1.511,14.167,0.1221,-0.7935,0.1221,-10604,5266,-192
61.126840925,-0.0371,0.0591,1.0054,2.203,1.494,14.172,-0.3662,-0.8545,0.3662,-10625,5218,-161
61.226841017,-0.043,0.021,1.0054,2.197,1.5,14.194,-0.061,-0.6104,0.3662,-10630,5219,-199
61.326841091,-0.0298,0.0469,1.0215,2.197,1.5,14.205,-0.3662,-1.2207,0.1221,-10661,5222,-202
61.426841166,-0.0439,0.1104,1.0259,2.203,1.5,14.227,-0.061,-0.7935,0.5493,-10617,5272,-243
61.526841295,-0.0327,0.0649,1.0737,2.197,1.483,14.249,-0.4272,-0.7324,0.0,-10603,5297,-248
61.626841332,-0.0649,0.0327,1.0493,2.197,1.472,14.266,0.0,-0.8545,0.3052,-10624,5277,-222
61.726841351,-0.0488,0.0737,0.9727,2.208,1.5,14.299,-0.3662,-0.7935,0.4272,-10636,5223,-206
61.826841387,-0.0513,0.0327,0.9741,2.197,1.494,14.299,0.0,-0.4272,0.061,-10627,5214,-203
61.926841499,-0.0483,0.0156,1.0059,2.208,1.505,14.326,0.0,-0.1221,0.3052,-10632,5199,-229
62.026841554,-0.021,0.1172,1.0464,2.203,1.494,14.359,0.0,-0.9155,0.1831,-10573,5255,-261
62.126841665,-0.0332,0.0698,0.9907,2.203,1.478,14.37,-0.4272,-0.4272,0.2441,-10565,5328,-255
62.226841684,-0.0566,0.0244,0.9951,2.208,1.494,14.392,0.0,-0.2441,0.1831,-10582,5332,-245
62.326841739,-0.0278,0.0674,1.0493,2.214,1.483,14.409,-0.061,-1.3428,0.3052,-10607,5284,-212
62.426841832,-0.0186,0.0635,1.0151,2.203,1.489,14.447,-0.3052,-1.0986,0.5493,-10608,5231,-202
62.526841869,-0.0381,0.0205,0.9722,2.214,1.494,14.474,-0.061,-0.2441,0.2441,-10629,5236,-225
62.626841998,-0.0425,0.0376,1.0127,2.214,1.489,14.496,0.0,-0.061,0.061,-10622,5267,-241
62.726842017,-0.0532,0.0337,1.0713,2.214,1.494,14.507,-0.061,-0.4883,0.0,-10582,5330,-252
62.826842109,-0.0713,0.061,0.9927,2.203,1.522,14.507,-0.4883,-0.5493,0.1831,-10570,5345,-247
62.926842146,-0.0518,0.0522,0.9546,2.208,1.566,14.535,-0.1221,0.0,0.4883,-10567,5320,-212
63.026842239,-0.0474,0.0283,1.0088,2.203,1.582,14.568,0.1221,-0.5493,0.1831,-10587,5250,-194
63.126842313,-0.0195,0.0688,1.0718,2.203,1.549,14.59,-0.1221,-0.9155,0.4272,-10585,5270,-197
63.226842424,-0.0493,0.0464,1.0063,2.208,1.555,14.617,-0.3662,-0.6714,0.1221,-10611,5262,-205
63.326842535,-0.0522,0.0176,0.9819,2.197,1.544,14.623,0.0,-0.5493,0.061,-10573,5281,-229
63.426842572,-0.0454,0.0527,1.02,2.203,1.544,14.639,0.0,-0.9155,0.3052,-10543,5337,-228
63.52684259,-0.0312,0.043,1.0332,2.214,1.533,14.689,0.0,-1.3428,0.4272,-10547,5343,-254
63.626842664,-0.0615,0.019,0.9771,2.203,1.511,14.7,-0.2441,-0.1831,0.1221,-10576,5300,-210
63.726842664,-0.0352,0.0635,1.0415,2.208,1.527,14.727,0.0,-1.1597,0.1221,-10598,5240,-184
63.826842794,-0.0171,0.0308,1.0586,2.214,1.5,14.727,-0.4272,-1.709,0.2441,-10622,5229,-179
63.926842812,-0.0493,0.0718,1.0156,2.208,1.505,14.76,-0.4272,-0.5493,0.4883,-10613,5213,-196
64.026842849,-0.0527,0.0713,0.9521,2.214,1.483,14.771,-0.1221,-0.3052,-0.1221,-10573,5265,-204
64.126842979,-0.0625,0.0308,0.979,2.214,1.467,14.766,0.061,0.1221,0.061,-10588,5304,-225
64.22684309,-0.063,0.0405,1.0615,2.208,1.478,14.799,0.0,-1.1597,0.3052,-10578,5301,-216
64.326843108,-0.042,0.0439,1.0464,2.208,1.456,14.821,-0.4272,-1.8311,0.4272,-10630,5232,-171
64.426843256,-0.0654,0.1138,1.0176,2.203,1.467,14.843,-0.2441,-0.7935,0.1221,-10639,5189,-184
64.526843349,-0.0454,0.0293,0.9697,2.203,1.461,14.843,-0.3662,-0.061,0.061,-10649,5196,-207
64.626843404,-0.0537,0.0234,1.0039,2.208,1.461,14.865,0.1831,0.1221,0.1831,-10621,5221,-235
64.726843534,-0.0435,0.042,1.0552,2.214,1.461,14.892,0.0,-0.8545,0.1221,-10612,5272,-235
64.826843645,-0.0107,0.0664,1.0347,2.208,1.461,14.908,-0.1831,-0.9766,0.4883,-10615,5277,-223
64.926843645,-0.0303,0.0288,0.9712,2.214,1.461,14.93,-0.2441,-0.3052,0.1831,-10652,5231,-203
65.026843756,-0.0513,0.0669,1.0054,2.208,1.461,14.941,0.061,-0.4883,0.0,-10685,5194,-214
65.126843867,-0.021,0.0249,1.0566,2.208,1.467,14.963,-0.061,-0.6104,0.2441,-10703,5179,-211
65.226843997,-0.0449,0.0723,1.0415,2.208,1.461,14.985,-0.4272,-1.0376,0.3662,-10682,5172,-215
65.326844071,-0.0444,0.0557,0.9946,2.208,1.45,15.002,-0.3052,-1.0376,0.3662,-10640,5235,-241
65.426844126,-0.0659,0.0225,0.9155,2.208,1.456,15.024,0.061,-0.1831,0.2441,-10639,5272,-263
65.5268442,-0.0283,0.0747,0.958,2.203,1.461,15.035,0.1221,-0.5493,0.1831,-10649,5269,-253
65.626844219,-0.0674,0.0498,0.9995,2.203,1.456,15.051,-0.6714,-0.9155,0.2441,-10688,5182,-209
65.726844237,-0.0649,0.0317,0.9854,2.197,1.472,15.084,-0.1221,-0.3662,0.3052,-10669,5167,-204
65.826844237,-0.0645,0.0254,0.9341,2.203,1.472,15.095,0.0,0.0,0.061,-10671,5161,-200
65.926844348,-0.0337,0.0459,0.9956,2.192,1.472,15.112,0.061,0.0,0.1221,-10606,5226,-239
66.026844441,-0.0342,0.0444,1.0498,2.203,1.483,15.139,0.1831,-0.7324,0.061,-10613,5273,-246
66.12684457,-0.0259,0.0142,1.0547,2.192,1.467,15.145,-0.1831,-0.9155,0.1831,-10668,5244,-214
66.226844626,-0.0396,0.0542,1.0068,2.197,1.472,15.183,-0.4883,-0.3662,0.4272,-10696,5144,-162
66.326844718,-0.0557,0.0552,0.9463,2.203,1.461,15.2,0.0,-0.6104,0.1221,-10699,5107,-145
66.426844737,-0.0366,0.0347,0.957,2.192,1.467,15.211,-0.061,-0.1221,0.1831,-10678,5113,-178
66.526844829,-0.0366,0.0376,1.0347,2.208,1.5,15.233,0.1221,-0.3662,0.3052,-10696,4994,-147
66.626844903,-0.0303,0.041,1.0547,2.203,1.489,15.255,-0.061,-0.6714,0.1221,-10690,5161,-206
66.726844959,-0.0254,0.0625,1.0601,2.203,1.483,15.271,-0.2441,-0.6104,0.1831,-10725,5182,-240
66.826844977,-0.0498,0.0312,1.0352,2.203,1.483,15.287,-0.4272,-1.1597,0.2441,-10735,5144,-253
66.926845088,-0.0532,0.0356,0.9795,2.203,1.489,15.298,-0.1831,-0.6104,0.3052,-10567,5169,-134
67.026845125,-0.0488,0.0557,0.9512,2.225,1.494,15.315,0.0,-0.7324,0.3052,-10539,5128,-53
67.126845255,-0.0396,0.0566,0.9644,2.23,1.478,15.331,-0.2441,-0.4883,0.6104,-10585,5112,-61
67.226845292,-0.0083,0.0776,1.0317,2.214,1.516,15.348,-0.061,0.9766,-1.2817,-10871,4754,-175
67.326845384,-0.0483,0.0581,1.0063,2.208,1.478,15.326,0.3662,-0.9766,0.3052,-10815,4646,-118
67.426845477,-0.0366,0.0649,1.0083,2.236,1.489,15.359,0.061,0.0,0.9766,-10559,5139,-57
67.526845495,-0.02,0.0059,1.0601,2.23,1.533,15.447,-0.4272,-0.7324,0.6714,-10506,5218,-76
67.626845551,-0.0293,0.0547,1.0151,2.208,1.478,15.436,-0.061,-0.7935,-0.2441,-10541,5049,-121
67.726845569,-0.0469,0.0376,1.0312,2.186,1.445,15.452,-0.7324,-0.3052,0.6104,-10433,5306,-110
67.826845662,-0.0469,0.0391,1.063,2.208,1.483,15.502,0.9766,0.1221,-0.1831,-10414,5379,-140
67.926845662,-0.0522,0.0381,1.0405,2.263,1.494,15.485,-0.3662,-1.3428,0.061,-10490,5195,-148
68.026845773,-0.0347,0.0566,1.0688,2.23,1.472,15.513,-0.9155,-0.9766,0.7935,-10546,5017,-129
68.126845884,-0.0537,0.0142,1.0376,2.236,1.5,15.54,-0.5493,-1.2817,0.1221,-10574,5049,-156
68.226845958,-0.0581,0.0547,1.0098,2.219,1.478,15.518,-0.3662,-0.8545,0.2441,-10807,4809,-268
68.326846032,-0.0439,0.0356,0.9824,2.23,1.5,15.568,0.0,-0.4272,0.6104,-10654,5203,-253
68.42684605,-0.0342,0.0396,0.9346,2.23,1.483,15.606,0.0,-0.7935,0.2441,-10495,5289,-108
68.526846106,-0.0381,0.0698,0.9805,2.208,1.445,15.617,0.4883,0.3052,-0.5493,-10685,5019,-162
68.626846143,-0.0542,0.0356,0.9858,2.23,1.483,15.601,-0.061,-0.3052,0.1831,-10891,4617,-196
68.726846161,-0.0366,0.0449,1.0718,2.219,1.478,15.628,0.061,-0.7935,0.3052,-10608,5115,-119
68.826846272,-0.0449,0.0786,0.9995,2.219,1.478,15.683,-0.061,-0.6714,0.6714,-10508,5260,-76
68.926846309,-0.0342,0.0181,1.0327,2.236,1.472,15.672,0.0,-0.3662,-0.061,-10844,4682,-204
69.026846383,-0.0449,0.082,1.0098,2.236,1.483,15.688,-0.9155,-1.2817,1.3428,-10829,4623,-207
69.12684642,-0.0557,0.0474,1.0049,2.236,1.489,15.721,-0.3662,-0.9155,0.3662,-10497,5269,-177
69.226846494,-0.0479,0.0122,1.0112,2.236,1.467,15.749,0.0,-0.6104,-1.0376,-10586,5167,-199
69.326846642,-0.0371,0.0571,0.9922,2.247,1.483,15.743,0.0,-0.1831,0.3662,-10857,4680,-209
69.426846661,-0.0728,0.0132,1.0166,2.236,1.467,15.787,-0.1831,-0.3662,0.1221,-10582,5075,-94
69.526846735,-0.0469,0.0117,0.9961,2.23,1.472,15.815,0.3052,-0.2441,0.3662,-10498,5272,-118
69.626846827,-0.0396,0.022,0.9771,2.241,1.489,15.793,0.3052,0.0,-0.2441,-10823,4705,-217
69.726846864,-0.0322,0.0381,1.043,2.236,1.472,15.82,-0.061,-1.1597,0.8545,-10801,4698,-178
69.826846883,-0.02,0.0122,1.0688,2.225,1.478,15.864,-0.2441,-0.6714,0.3662,-10536,5288,-158
69.926846938,-0.042,0.061,1.0864,2.219,1.461,15.87,-0.6104,-1.1597,-1.0986,-10626,4985,-109
70.026847012,-0.0425,0.0464,1.04,2.23,1.461,15.864,-0.2441,-1.1597,0.1221,-10886,4566,-162
70.126847049,-0.0464,0.0571,1.0107,2.214,1.45,15.93,-0.7324,-1.6479,0.6104,-10593,5089,-155
70.226847105,-0.0239,0.0107,1.0405,2.214,1.456,15.952,-0.4272,-1.4648,0.3662,-10422,5381,-151
70.326847197,-0.0459,0.0308,1.0132,2.23,1.45,15.936,0.0,-0.4272,-0.2441,-10746,4777,-147
70.426847253,-0.0464,0.0151,1.0283,2.23,1.45,15.974,-0.4883,-1.3428,1.1597,-10817,4605,-146
70.526847327,-0.0522,0.0586,0.9917,2.219,1.461,16.007,-0.061,-0.7935,0.2441,-10523,5211,-136
70.626847401,-0.022,0.0645,1.0342,2.219,1.445,16.024,-0.4883,-1.0986,-0.7324,-10574,5161,-177
70.726847493,-0.0508,0.0601,0.9165,2.23,1.461,16.013,0.0,-0.1221,0.2441,-10804,4730,-231
70.826847604,-0.0381,0.0459,0.9385,2.208,1.45,16.062,0.1221,0.2441,0.3052,-10607,5175,-197
70.926847604,-0.0688,0.063,0.9326,2.214,1.456,16.1,0.5493,0.1831,0.3662,-10483,5302,-110
71.026847678,-0.0278,0.0425,1.0024,2.219,1.456,16.073,-0.061,0.0,0.0,-10843,4677,-192
71.126847752,-0.0503,0.0576,1.0483,2.197,1.439,16.133,-0.9155,-0.2441,0.1831,-10686,4966,-200
71.226847882,-0.0435,0.0298,1.0811,2.197,1.45,16.155,-0.2441,-0.9766,0.2441,-10481,5383,-151
71.326848011,-0.0547,0.0581,0.9824,2.214,1.428,16.15,0.6714,-0.6714,-0.4883,-10689,4902,-103
71.426848123,-0.0562,0.0308,1.0605,2.219,1.45,16.161,-0.4883,-0.6104,0.3662,-10817,4604,-115
71.526848141,-0.0669,0.061,0.9858,2.203,1.434,16.216,-0.4272,-0.7935,0.3052,-10568,5168,-140
71.626848215,-0.0645,0.0181,0.9966,2.203,1.445,16.243,0.0,-0.4272,0.4883,-10455,5432,-178
71.726848308,-0.0469,0.0449,0.9272,2.214,1.439,16.254,-0.061,-0.4272,0.061,-10742,5017,-232
71.8268484,-0.0674,0.0532,0.9595,2.197,1.439,16.276,0.061,0.0,0.2441,-10788,4816,-164
71.926848456,-0.0391,0.0659,0.9395,2.208,1.461,16.309,0.5493,0.3662,0.1831,-10502,5281,-95
72.026848567,-0.0527,0.0415,1.0029,2.203,1.456,16.331,0.0,-0.3052,0.1221,-10412,5401,-123
72.126848659,-0.0176,0.0283,1.0361,2.214,1.445,16.342,0.2441,-0.4272,0.0,-10613,5274,-234
72.22684877,-0.0342,0.0234,1.0703,2.203,1.456,16.364,-0.3662,-0.7935,0.4272,-10767,4983,-224
72.326848826,-0.0264,0.0713,1.0522,2.214,1.467,16.392,-0.3662,-1.2207,0.3662,-10764,4937,-222
72.426848881,-0.0391,0.0498,0.9873,2.192,1.456,16.414,-0.6104,-1.1597,0.3662,-10523,5260,-107
72.526848881,-0.0508,0.0283,0.9233,2.192,1.434,16.436,0.1221,0.0,0.1831,-10429,5406,-119
72.626848918,-0.0083,0.0308,1.021,2.192,1.445,16.447,0.4272,-0.2441,-0.061,-10631,5153,-205
72.726848974,-0.0386,0.002,1.0371,2.192,1.456,16.463,0.0,-0.2441,0.3662,-10786,4927,-226
72.826849011,-0.0283,0.0547,1.0977,2.192,1.461,16.496,0.0,-0.7935,0.1831,-10505,5295,-103
72.926849029,-0.0308,0.0156,1.0796,2.197,1.434,16.523,-0.3052,-0.9766,0.2441,-10504,5313,-122
73.026849047,-0.0425,0.0234,1.0703,2.197,1.428,16.534,-0.1221,-0.3052,0.1831,-10763,4911,-265
73.12684914,-0.0342,0.0376,1.0615,2.192,1.445,16.551,-0.3662,-1.0986,0.3052,-10680,5003,-201
73.226849288,-0.0527,0.0244,1.0532,2.192,1.439,16.567,0.1221,-0.9155,0.1221,-10544,5350,-146
73.326849381,-0.0181,-0.0117,1.0415,2.197,1.439,16.595,-0.1831,-0.1831,0.4272,-10743,4980,-188
73.426849436,-0.0498,0.0586,1.0625,2.186,1.428,16.617,-0.1221,-0.7324,0.061,-10799,4814,-239
73.526849473,-0.0308,0.0024,1.0625,2.192,1.428,16.628,-0.1221,-1.0376,0.1831,-10591,5375,-228
73.626849547,-0.0479,0.042,0.9966,2.203,1.423,16.65,0.1831,-0.3052,0.1831,-10550,5256,-177
73.726849677,-0.062,0.0352,1.0967,2.203,1.434,16.65,-0.061,-0.8545,0.3052,-10843,4723,-211
73.826849732,-0.0527,0.0,1.0332,2.181,1.412,16.688,-0.1221,-0.9155,0.3662,-10719,5224,-231
73.926849751,-0.0371,0.0571,1.0264,2.181,1.417,16.716,-0.1221,-0.7324,0.3662,-10529,5390,-176
74.02684988,-0.0415,0.0449,0.9653,2.197,1.417,16.705,-0.1221,-0.2441,0.1221,-10760,4853,-243
74.126849917,-0.062,0.0454,0.998,2.175,1.428,16.738,-0.1831,-0.3052,0.2441,-10724,5185,-234
74.226849991,-0.0229,0.0151,1.0083,2.192,1.434,16.771,0.3662,-0.3662,0.3662,-10582,5335,-147
74.326850028,-0.0186,0.0005,1.0645,2.197,1.423,16.787,0.6104,0.061,0.0,-10728,4960,-201
74.426850102,-0.0464,0.0571,1.0532,2.197,1.428,16.804,-0.3662,-0.4272,0.1831,-10776,4861,-262
74.526850139,-0.0757,0.0215,1.0,2.203,1.439,16.826,-0.6714,-1.1597,0.3662,-10739,4984,-257
74.626850232,-0.064,0.0532,0.9526,2.192,1.445,16.859,-0.061,-0.7324,0.3662,-10765,4971,-177
74.726850343,-0.0425,0.043,0.9424,2.208,1.45,16.88,0.1831,0.1221,0.1221,-10746,4958,-197
74.826850343,-0.0566,0.0522,0.9785,2.203,1.456,16.897,0.1221,0.3662,0.1221,-10734,4977,-209
74.926850435,-0.0259,0.0513,1.0767,2.203,1.461,16.908,0.2441,-0.1831,-0.1831,-10699,5062,-229
75.026850472,-0.0498,0.0293,1.0283,2.208,1.445,16.924,0.0,-0.4272,0.3052,-10678,5104,-203
75.126850509,-0.0474,0.0635,1.0938,2.203,1.456,16.957,-0.1221,-0.5493,0.3052,-10685,5082,-189
75.226850583,-0.0303,0.0347,1.0347,2.203,1.461,16.979,-0.3052,-1.3428,0.061,-10689,5091,-196
75.326850657,-0.042,0.0586,1.0864,2.192,1.439,16.968,-0.6714,-1.3428,0.2441,-10683,5111,-221
75.426850694,-0.0513,0.042,1.0073,2.225,1.456,16.985,0.0,-0.4883,0.4272,-10619,5120,-259
75.526850787,-0.0586,0.0459,0.9824,2.192,1.45,17.018,-0.1831,-0.3662,0.2441,-10507,5044,-260
75.626850861,-0.0474,0.0522,0.9761,2.203,1.439,17.045,0.1221,-0.061,0.1831,-10522,4939,-244
75.726850916,-0.0317,0.0439,1.0264,2.186,1.423,17.073,0.1221,-0.4272,0.1831,-10525,4909,-224
75.826850972,-0.0347,0.0942,1.0649,2.197,1.428,17.084,-0.3052,-1.3428,0.4272,-10475,4780,-271
75.926851083,-0.0474,0.0596,1.0107,2.181,1.434,17.111,0.061,-0.6104,0.3052,-10410,4769,-329
76.02685112,-0.0454,0.022,0.9795,2.203,1.434,17.122,-0.8545,-1.2207,0.1221,-10305,4310,-330
76.126851212,-0.0508,0.0244,1.0347,2.175,1.423,17.139,0.2441,-0.3052,0.1221,-10141,3670,-346
76.226851268,-0.0356,0.0566,1.0356,2.236,1.412,13.585,0.2441,-1.2817,0.2441,-10007,2836,-425
76.326851286,-0.0278,0.0581,0.9683,2.192,1.313,8.789,-3.418,-4.1504,0.9155,-9917,1494,-488
76.426851286,-0.0303,0.0522,0.9541,1.774,0.467,3.845,-11.2305,-20.4468,-3.0518,-10064,220,-423
76.526851305,-0.0254,-0.0088,1.0366,0.775,-1.412,-1.143,-3.54,-6.4697,-0.9766,-10193,-812,-324
76.626851397,0.0601,0.0479,1.0562,0.758,-1.577,-5.592,-2.3193,-4.3945,-0.2441,-10544,-1866,-275
76.726851508,0.0249,-0.0122,1.0435,0.527,-2.027,-9.904,-2.3193,-3.8452,0.1221,-10805,-2617,-308
76.826851564,0.0347,0.0259,1.0024,0.363,-2.373,-14.002,-5.188,-8.7891,-0.3052,-11242,-3148,-285
76.926851601,0.0503,-0.0273,1.0039,-0.291,-3.609,-18.067,-10.0708,-16.9067,-4.4556,-11756,-3832,-211
77.026851712,0.0518,0.0005,0.9507,-1.961,-6.108,-21.89,-20.752,-29.9072,-0.6104,-11601,-4117,9
77.12685173,0.1309,-0.0854,0.979,-3.79,-8.959,-25.356,-19.5312,-30.4565,-0.7324,-11137,-3901,269
77.226851786,0.1846,-0.1162,1.064,-5.295,-11.223,-28.411,-1.2817,-2.1973,0.1221,-10715,-3571,507
77.326851786,0.1699,-0.0967,0.9268,-4.818,-9.514,-31.855,-3.7231,23.1323,-4.2725,-10600,-3323,491
77.426851878,0.1396,-0.0312,0.9067,-4.955,-8.679,-35.03,3.2959,-16.6626,2.0142,-10653,-3312,499
77.526851989,0.1206,-0.1201,1.0234,-4.818,-9.322,-37.683,-2.3804,9.0942,-0.1831,-10735,-3511,434
77.626852026,0.1006,-0.0396,0.9805,-5.158,-7.344,-40.759,-5.4932,27.2217,-4.0283,-10838,-3667,419
77.7268521,0.1338,0.0068,0.9292,-5.142,-5.268,-43.852,12.8174,7.5073,0.061,-11223,-3795,235
77.826852137,0.0488,-0.147,0.9312,-4.202,-5.087,-46.049,-0.3052,-1.4648,1.4648,-11782,-3968,-22
77.926852267,0.0552,-0.0635,1.0293,-4.241,-5.268,-48.126,-0.9766,0.3052,-0.3052,-11940,-4649,-50
78.026852341,0.0854,-0.0503,0.9897,-4.257,-5.208,-50.268,1.709,-2.5024,1.1597,-11998,-5099,17
78.126852378,0.0986,-0.04,0.9932,-4.334,-5.12,-52.306,-1.0376,3.8452,-1.6479,-11982,-5261,33
78.226852489,0.0591,-0.1289,0.9678,-4.323,-5.306,-54.097,-1.2207,-0.8545,-1.1597,-11965,-4526,-39
78.326852581,0.0615,-0.061,0.9702,-4.323,-5.477,-55.8,-0.9766,-0.061,0.3052,-11552,-3317,0
78.426852581,0.1089,-0.1035,1.0488,-4.279,-5.598,-57.294,0.7935,-2.9297,1.709,-11679,-3750,-23
78.526852655,0.0737,-0.0791,1.0562,-4.312,-5.598,-58.997,-0.5493,1.2817,-1.2207,-11879,-4905,0
78.626852766,0.083,-0.0459,1.0405,-4.307,-5.746,-60.315,1.0986,-5.6152,2.1362,-11859,-4538,-39
78.726852822,0.124,-0.0957,1.0435,-4.323,-5.718,-61.699,-0.9155,3.6011,-1.4038,-11491,-3306,48
78.826852933,0.1001,-0.0474,1.0273,-4.312,-5.806,-62.913,0.7324,-3.6621,0.6714,-11578,-3622,-28
78.926853007,0.0996,-0.1069,1.0034,-4.384,-5.565,-64.374,-0.5493,1.9531,-0.1831,-11835,-4787,2
79.026853118,0.0625,-0.0518,0.9985,-4.367,-5.696,-65.374,0.0,-0.6714,0.0,-11748,-4091,-19
79.126853211,0.0747,-0.0488,0.9487,-4.417,-5.526,-66.599,-0.5493,0.2441,-0.2441,-11462,-3191,45
79.226853229,0.0449,-0.0703,0.9873,-4.422,-5.609,-67.489,-0.6104,0.061,0.3052,-11614,-3721,-7
79.32685334,0.064,-0.1245,1.0376,-4.477,-5.405,-68.621,-1.1597,1.5259,-0.3662,-11819,-4804,-19
79.426853433,0.0957,-0.0605,1.0229,-4.46,-5.504,-69.434,1.5259,-4.5166,1.709,-11780,-4206,-40
79.526853562,0.1035,-0.0688,1.0522,-4.427,-5.806,-70.203,-0.9155,1.0986,0.0,-11382,-3135,66
79.626853636,0.0591,-0.0591,0.9941,-4.455,-5.768,-70.944,-1.4038,1.2207,-0.061,-11589,-3729,19
79.726853766,0.0854,-0.0586,1.0469,-4.532,-5.471,-71.889,-0.7935,2.5024,-0.2441,-11778,-4726,-10
79.826853858,0.1187,-0.0757,0.998,-4.537,-5.466,-72.548,0.5493,-0.7935,-0.7935,-11574,-3665,-46
79.926853951,0.0649,-0.0244,0.979,-4.526,-5.674,-73.158,-1.2207,3.1738,-0.7935,-11322,-2981,52
80.026854006,0.0093,-0.1626,0.9531,-4.625,-5.12,-73.801,-2.8076,11.9019,-0.3662,-11424,-3104,68
80.12685408,0.0293,-0.0332,0.98,-5.158,-2.477,-74.086,-7.6904,32.959,6.1035,-11438,-2967,-24
80.226854154,0.0425,-0.0913,1.0527,-5.378,-1.225,-74.57,1.1597,-1.9531,2.0142,-11430,-2863,-148
80.32685421,0.019,-0.0957,1.0068,-5.345,-1.324,-74.877,0.4883,-0.2441,1.1597,-11255,-2692,-98
80.426854228,-0.02,-0.0967,1.0132,-5.416,-1.126,-75.289,-3.479,8.2397,2.5635,-10939,-2516,65
80.526854339,-0.043,-0.1279,1.0039,-5.466,-1.06,-75.679,-1.4038,5.9204,-1.8311,-10441,-1992,193
80.626854432,0.0146,-0.1025,1.0034,-5.438,-1.077,-76.152,0.9155,-4.5166,1.5259,-10114,-1465,221
80.726854469,-0.0493,-0.2188,1.0146,-5.219,-2.01,-77.239,5.6763,-20.3247,-0.3052,-9650,-278,339
80.826854598,0.041,-0.0254,1.0439,-4.669,-4.417,-77.717,3.6011,-22.7661,0.7935,-9372,991,512
80.926854654,0.0679,-0.0815,0.9819,-4.609,-4.823,-77.97,-2.0752,7.6294,-1.6479,-9403,1667,626
81.026854654,0.0439,-0.1089,1.0146,-4.669,-4.455,-78.025,-0.9155,-0.3662,0.061,-9400,2095,684
81.126854746,0.0317,-0.0391,0.98,-4.697,-4.351,-77.866,-0.3052,0.8545,0.3662,-9397,2645,700
81.226854765,0.1104,-0.0732,0.9805,-4.73,-4.257,-77.591,-0.7324,-0.8545,0.7324,-9426,2775,739
81.326854783,0.0542,-0.0708,0.9741,-4.779,-4.169,-77.305,-0.6714,1.0376,0.061,-9446,2823,794
81.426854839,0.0347,-0.1089,1.0239,-4.801,-4.037,-76.965,-1.5869,4.3335,-0.7324,-9418,2972,770
81.526854931,0.0356,-0.0796,0.9824,-4.839,-3.719,-76.685,-0.1831,0.6104,0.4883,-9430,3274,789
81.626855042,0.1035,-0.0435,0.9663,-4.856,-3.785,-76.163,0.9766,-2.6855,0.6104,-9405,3332,831
81.726855172,0.001,-0.0342,0.9155,-4.504,-4.351,-75.866,9.5215,-10.6812,-0.8545,-9513,3138,842
81.826855209,0.0742,-0.062,1.0332,-3.032,-4.46,-75.624,5.6152,-0.4272,0.7324,-9860,2830,690
81.926855227,0.0854,-0.0942,1.0308,-3.027,-4.51,-75.498,0.1831,-2.0752,0.1221,-9908,2826,626
82.026855264,0.0518,-0.0723,1.0298,-3.01,-4.592,-75.361,0.6714,-2.1973,0.1831,-9910,2827,620
82.126855301,0.0796,-0.063,0.9785,-3.005,-4.757,-75.295,-0.7935,-2.5024,-0.7324,-9932,2755,671
82.22685532,0.0596,-0.0146,0.9492,-2.999,-4.818,-75.256,-0.6104,0.5493,0.1221,-9983,2736,679
82.326855412,0.0498,-0.0176,0.979,-3.005,-4.757,-75.174,-0.9155,1.709,0.0,-9950,2771,633
82.426855542,0.062,-0.0498,0.9531,-3.021,-4.653,-75.146,-1.0986,0.6104,-0.3052,-9965,2788,635
82.526855579,0.0317,0.0078,0.9521,-3.043,-4.532,-75.086,-0.4883,0.7935,1.0986,-10039,2738,678
82.626855653,0.0498,-0.0308,1.0127,-3.06,-4.417,-75.02,-0.6714,1.0986,0.3662,-10074,2703,657
82.726855708,0.0,-0.0352,1.0225,-3.104,-4.164,-74.971,-1.5259,7.3242,1.709,-10135,2725,648
82.826855764,0.0171,-0.0547,1.0688,-3.323,-3.159,-74.927,-0.7935,2.2583,-0.2441,-10319,2828,561
82.926855856,0.0225,-0.0791,1.0186,-3.285,-3.257,-74.778,-0.1221,0.0,0.6104,-10380,2858,585
83.026855912,0.0352,-0.0327,1.0757,-3.257,-3.323,-74.702,0.7324,-2.5024,0.1831,-10410,2824,592
83.126855986,0.0557,-0.0713,1.0259,-3.257,-3.455,-74.68,-0.1831,-2.6245,-0.6104,-10443,2754,561
83.226856023,0.0039,-0.0083,1.2393,-2.972,-5.004,-74.784,3.7842,-20.4468,-1.77,-10455,2623,563
83.32685606,0.0923,-0.0864,1.0195,-3.043,-5.032,-74.806,-0.1831,-2.7466,0.6104,-10447,2419,468
83.426856171,0.0659,-0.0889,1.0024,-3.071,-5.092,-74.751,-1.2817,1.4648,-0.4883,-10450,2289,438
83.526856282,0.0757,-0.0063,0.958,-3.126,-5.054,-74.696,-0.6714,0.0,0.1831,-10461,2155,432
83.6268563,0.1055,-0.0913,0.9873,-3.104,-5.037,-74.68,0.3662,-1.3428,0.061,-10508,2128,386
83.726856374,0.0591,-0.0122,1.0347,-3.109,-5.076,-74.581,0.0,-0.7324,0.6714,-10443,2224,363
83.826856411,0.1206,-0.0967,1.0552,-3.12,-5.015,-74.487,0.6714,-1.0986,0.9155,-10419,2364,392
83.926856467,0.0659,-0.0557,1.0088,-3.153,-5.043,-74.366,0.1221,-0.4883,0.1831,-10469,2659,487
84.026856522,0.0918,-0.1074,1.0557,-3.137,-5.043,-74.301,0.3052,-1.2207,0.6104,-10420,2802,485
84.126856615,0.0728,-0.0483,0.9478,-3.153,-5.043,-74.257,-0.2441,-0.7324,-0.061,-10613,2609,421
84.226856633,0.0503,-0.0425,0.9863,-3.131,-5.076,-74.246,-0.4883,0.0,-0.6104,-10903,2058,361
84.326856633,0.0752,-0.0298,1.0039,-3.126,-5.092,-74.202,-0.061,-0.4883,0.0,-10978,1774,418
84.42685667,0.0996,-0.0288,1.0474,-3.104,-5.186,-74.169,0.4883,-1.709,0.4272,-11003,1663,412
84.5268568,0.0508,-0.0371,0.9878,-3.115,-5.213,-74.136,-0.8545,0.5493,-0.3052,-11039,1657,430
84.626856929,0.0659,-0.0522,1.0195,-3.104,-5.235,-74.103,0.0,-1.0986,0.4272,-11012,1658,412
84.726856966,0.0889,-0.0625,0.9634,-3.104,-5.235,-74.064,-0.2441,-0.5493,0.1221,-10982,1724,372
84.82685704,0.0728,-0.0596,1.0532,-3.082,-5.284,-74.026,-0.6714,0.1221,-0.2441,-11000,1731,375
84.926857114,0.103,-0.0981,1.0312,-3.087,-5.306,-73.982,-0.061,0.0,-0.061,-11053,1655,431
85.026857188,0.1064,-0.0767,0.9736,-3.076,-5.367,-73.96,0.3662,-1.6479,0.1831,-11080,1624,432
85.126857225,0.0601,-0.0557,0.9043,-3.071,-5.389,-73.927,-0.5493,0.1831,0.061,-11042,1628,413
85.226857225,0.0283,-0.0596,0.9824,-3.076,-5.394,-73.894,-0.3662,0.3052,0.0,-11006,1696,388
85.326857355,0.0776,-0.019,1.0889,-3.076,-5.4,-73.861,-0.1831,-0.5493,-0.061,-11003,1704,396
85.42685741,0.0908,-0.1089,1.0332,-3.071,-5.394,-73.839,0.0,-1.0986,0.4272,-11033,1630,412
85.526857429,0.0898,-0.0479,0.9614,-3.065,-5.4,-73.806,0.4272,-1.3428,0.4883,-11051,1613,394
85.626857558,0.0796,-0.0776,0.9927,-3.071,-5.433,-73.768,-0.5493,0.1221,-0.2441,-11038,1653,376
85.726857614,0.0962,-0.0454,0.9917,-3.071,-5.471,-73.724,0.1221,-3.3569,0.8545,-11047,1703,382
85.826857651,0.0908,-0.0889,1.0317,-3.071,-5.466,-73.691,0.0,-1.8921,0.6104,-11015,1697,412
85.926857706,0.0806,-0.0581,0.9834,-3.071,-5.46,-73.663,0.0,-2.4414,0.6714,-11044,1651,420
86.026857762,0.0815,-0.085,1.0117,-3.071,-5.455,-73.636,0.1221,-0.8545,0.3662,-11037,1664,412
86.126857817,0.0771,-0.042,0.9478,-3.076,-5.449,-73.603,-0.5493,0.061,-0.061,-11009,1709,391
86.226857891,0.0537,-0.0229,0.9756,-3.082,-5.466,-73.57,-0.4272,0.1831,0.1831,-11002,1747,369
86.326857984,0.0811,-0.0195,1.0557,-3.071,-5.46,-73.537,-0.2441,-0.6714,0.0,-11037,1705,409
86.426858058,0.0786,-0.0435,1.0312,-3.071,-5.488,-73.51,0.1831,-2.8687,0.6714,-11042,1653,452
86.526858114,0.1035,-0.0537,1.0479,-3.065,-5.488,-73.477,0.2441,-2.5024,0.9155,-11014,1663,414
86.626858169,0.1069,-0.0962,0.9355,-3.071,-5.46,-73.449,-0.1831,-0.9766,0.3052,-11012,1726,365
86.726858262,0.0527,-0.0508,0.9658,-3.082,-5.46,-73.422,-0.2441,0.4272,0.0,-11020,1774,378
86.826858317,0.0801,0.0293,1.0234,-3.065,-5.477,-73.394,-0.2441,-0.061,0.0,-11040,1694,398
86.926858391,0.0957,-0.0273,1.0811,-3.076,-5.477,-73.361,-0.2441,-0.5493,0.3662,-11053,1670,394
87.026858428,0.0835,-0.042,1.0601,-3.065,-5.466,-73.323,0.3052,-1.8311,0.4272,-11055,1687,398
87.126858465,0.0679,-0.0444,1.0308,-3.082,-5.504,-73.306,0.0,-3.54,0.6714,-11026,1757,381
87.226858465,0.0728,-0.0879,0.98,-3.071,-5.488,-73.273,0.0,-0.7324,0.4883,-11005,1783,367
87.326858483,0.0977,-0.0522,0.9453,-3.087,-5.466,-73.24,-0.3662,0.0,-0.061,-11043,1728,416
87.42685852,0.0723,-0.0181,0.9639,-3.087,-5.499,-73.218,-0.4883,0.1221,0.0,-11051,1686,425
87.526858576,0.0845,-0.0298,1.0732,-3.076,-5.493,-73.185,-0.3662,-0.2441,0.1221,-11024,1696,419
87.626858594,0.0767,-0.0562,1.0298,-3.076,-5.51,-73.147,0.061,-2.1362,0.5493,-10996,1764,378
87.726858668,0.082,-0.0654,0.9922,-3.076,-5.504,-73.125,0.0,-0.7935,0.3052,-11002,1783,394
87.826858761,0.0718,-0.0303,0.9927,-3.076,-5.499,-73.098,-0.7935,0.9766,-0.2441,-11047,1718,409
87.926858853,0.1079,-0.0435,1.0542,-3.082,-5.504,-73.076,0.0,-0.6714,0.3052,-11046,1680,427
88.026858946,0.0894,0.0117,1.0542,-3.071,-5.51,-73.037,0.7935,-2.6245,0.9155,-11061,1669,421
88.126858983,0.0664,-0.043,0.9751,-3.087,-5.51,-73.004,-0.7324,0.3052,-0.1221,-11039,1743,388
88.226859038,0.0396,-0.0332,0.9351,-3.082,-5.515,-72.999,-0.2441,0.3662,0.0,-11071,1672,416
88.326859094,0.0737,-0.0024,1.0854,-3.082,-5.504,-72.966,-0.6104,0.3052,0.0,-11108,1470,470
88.426859205,0.0703,-0.0557,1.0557,-3.076,-5.499,-72.933,0.1831,-1.2817,0.3052,-11082,1400,465
88.526859223,0.085,-0.0381,1.0972,-3.082,-5.515,-72.911,-0.061,-1.3428,0.3052,-11069,1409,467
88.626859316,0.0869,-0.0527,1.0449,-3.076,-5.515,-72.883,-0.1221,-0.8545,0.3662,-11028,1469,442
88.726859408,0.082,-0.0259,1.0605,-3.071,-5.51,-72.861,-0.4883,-0.3052,0.061,-11019,1487,456
88.826859408,0.0732,-0.0161,1.0625,-3.071,-5.515,-72.834,-0.1221,-0.6104,0.3052,-11052,1451,470
88.926859519,0.0913,-0.0571,1.0488,-3.071,-5.515,-72.801,0.1221,-1.1597,0.4272,-11094,1411,471
89.026859575,0.0889,-0.0479,0.9863,-3.076,-5.521,-72.773,0.1831,-0.9766,0.4272,-11118,1398,479
89.126859593,0.1006,-0.0405,1.0093,-3.071,-5.521,-72.751,0.0,-1.1597,0.4883,-11112,1377,456
89.226859742,0.0654,-0.0542,1.0044,-3.071,-5.521,-72.724,-0.1221,-0.4883,0.1831,-11118,1370,468
89.326859853,0.0771,-0.0488,1.0288,-3.065,-5.515,-72.691,-0.2441,-0.4272,0.2441,-11114,1372,465
89.426859927,0.0771,-0.0498,1.0088,-3.065,-5.51,-72.664,-0.1831,-0.4883,0.1221,-11108,1404,457
89.526859982,0.0879,-0.0488,1.0068,-3.065,-5.51,-72.636,-0.1831,-0.4883,0.2441,-11085,1415,441
89.626860112,0.0791,-0.0498,1.0142,-3.06,-5.51,-72.603,-0.061,-0.5493,0.1831,-11092,1412,449
89.726860204,0.0806,-0.0552,1.0195,-3.06,-5.515,-72.581,-0.061,-0.5493,0.2441,-11095,1420,435
89.826860297,0.0786,-0.041,0.9995,-3.049,-5.504,-72.548,0.0,-0.5493,0.2441,-11089,1412,436
89.926860352,0.0854,-0.0542,1.0151,-3.043,-5.51,-72.526,-0.1831,-0.7324,0.1831,-11073,1420,436
90.026860389,0.0825,-0.0444,1.0024,-3.043,-5.493,-72.493,0.0,-0.2441,0.3662,-11072,1410,465
90.126860519,0.0747,-0.0508,1.0098,-3.043,-5.482,-72.477,-0.2441,-0.4883,0.0,-11074,1411,433
90.226860593,0.0737,-0.0498,1.0078,-3.043,-5.477,-72.46,0.0,-0.4883,0.3052,-11081,1423,447
90.326860593,0.083,-0.0479,1.0117,-3.043,-5.455,-72.405,-0.1831,-0.4883,0.4883,-11089,1411,442
90.426860722,0.0815,-0.0527,1.0161,-3.049,-5.455,-72.389,-0.1221,-0.7324,0.061,-11096,1409,457
90.526860815,0.0713,-0.0474,1.0068,-3.043,-5.455,-72.378,-0.061,-0.5493,0.2441,-11080,1410,446
90.626860833,0.0864,-0.0493,1.0161,-3.043,-5.444,-72.328,-0.1221,-0.5493,0.3662,-11081,1416,448
90.726860889,0.0747,-0.0532,1.0122,-3.049,-5.455,-72.312,-0.061,-0.7324,0.061,-11110,1430,442
90.826860963,0.085,-0.0439,1.0059,-3.043,-5.466,-72.29,-0.1221,-0.5493,0.3052,-11105,1417,431
90.926861092,0.0757,-0.0552,1.0137,-3.038,-5.455,-72.257,0.0,-0.5493,0.2441,-11091,1421,424
91.026861129,0.0776,-0.04,1.0181,-3.038,-5.466,-72.23,-0.061,-0.8545,0.2441,-11093,1424,418
91.126861166,0.0825,-0.0552,1.0063,-3.032,-5.471,-72.197,-0.1831,-0.7324,0.3662,-11068,1419,448
91.22686124,0.0845,-0.0488,1.0137,-3.032,-5.482,-72.169,0.0,-0.5493,0.1221,-11069,1419,407
91.32686137,0.0771,-0.0439,1.0098,-3.038,-5.482,-72.153,-0.2441,-0.4883,0.1221,-11071,1432,430
91.426861481,0.0771,-0.0527,1.0146,-3.032,-5.466,-72.12,-0.061,-0.4883,0.3052,-11066,1416,415
91.526861611,0.0845,-0.0483,1.0132,-3.027,-5.471,-72.092,-0.061,-0.6714,0.2441,-11066,1414,419
91.626861629,0.082,-0.0479,1.0073,-3.027,-5.471,-72.065,-0.1221,-0.3052,0.2441,-11065,1419,447
91.726861647,0.0747,-0.0522,1.0176,-3.027,-5.449,-72.043,-0.061,-0.5493,0.1831,-11069,1395,434
91.826861777,0.0728,-0.043,1.0107,-3.027,-5.46,-72.026,-0.061,-0.9155,0.2441,-11076,1410,443
91.926861833,0.0859,-0.0513,1.0112,-3.021,-5.471,-71.982,-0.061,-0.6714,0.4272,-11077,1394,445
92.026861851,0.0806,-0.0513,1.0137,-3.027,-5.471,-71.949,-0.061,-0.5493,0.2441,-11078,1394,436
92.126861888,0.0815,-0.0405,1.0122,-3.027,-5.488,-71.933,-0.1221,-0.8545,0.061,-11091,1393,432
92.226861906,0.0806,-0.0537,1.0063,-3.016,-5.488,-71.911,-0.2441,-0.3662,0.4272,-11078,1394,425
92.326861999,0.0791,-0.0508,1.0166,-3.021,-5.477,-71.873,0.0,-0.6714,0.1831,-11083,1392,425
92.426862017,0.0791,-0.0425,1.0068,-3.021,-5.488,-71.856,-0.1831,-0.6104,0.2441,-11077,1401,399
92.526862128,0.0791,-0.0557,1.0161,-3.021,-5.477,-71.818,-0.1221,-0.4272,0.4272,-11082,1393,429
92.626862147,0.0806,-0.0498,1.0083,-3.021,-5.482,-71.79,-0.061,-0.7324,0.061,-11099,1390,432
92.726862165,0.0791,-0.0425,1.0112,-3.021,-5.482,-71.779,-0.1831,-0.4272,0.2441,-11096,1379,437
92.826862239,0.0771,-0.0537,1.0122,-3.016,-5.46,-71.746,-0.1221,-0.6104,0.2441,-11106,1388,433
92.926862239,0.082,-0.0459,1.0112,-3.021,-5.471,-71.724,-0.1221,-0.7324,0.1831,-11104,1409,458
93.026862369,0.0801,-0.0488,1.0063,-3.01,-5.477,-71.691,-0.061,-0.4883,0.3052,-11115,1411,441
93.126862387,0.0811,-0.0464,1.0117,-3.016,-5.477,-71.658,-0.2441,-0.6104,0.1221,-11110,1422,440
93.226862517,0.0767,-0.0552,1.0127,-3.016,-5.482,-71.647,0.0,-0.5493,0.1221,-11121,1410,426
93.326862572,0.0757,-0.041,1.0078,-3.016,-5.477,-71.625,-0.1221,-0.7324,0.3662,-11101,1415,436
93.426862646,0.0845,-0.0527,1.0156,-3.01,-5.482,-71.587,-0.1221,-0.6714,0.3052,-11099,1416,448
93.526862757,0.085,-0.0449,1.0122,-3.01,-5.482,-71.559,-0.061,-0.6104,0.1831,-11095,1423,424
93.626862776,0.0815,-0.0503,1.0117,-3.01,-5.499,-71.543,-0.1221,-0.4272,0.1221,-11098,1413,444
93.726862794,0.0742,-0.0483,1.0122,-3.01,-5.493,-71.521,-0.061,-0.5493,0.2441,-11118,1417,429
93.826862887,0.0791,-0.0469,1.0117,-3.01,-5.488,-71.499,-0.1831,-0.7935,0.1831,-11108,1417,420
93.926862924,0.0835,-0.0513,1.0093,-3.01,-5.493,-71.472,-0.061,-0.6714,0.2441,-11094,1416,429
94.026862979,0.082,-0.0513,1.0083,-3.01,-5.493,-71.444,-0.1221,-0.6714,0.2441,-11082,1402,463
94.126863016,0.083,-0.0483,1.0137,-3.016,-5.51,-71.428,-0.1221,-0.6714,0.1221,-11087,1412,443
94.226863072,0.0811,-0.0479,1.0044,-3.005,-5.499,-71.4,-0.061,-0.2441,0.3052,-11097,1400,448
94.326863164,0.0732,-0.0493,1.0156,-3.016,-5.493,-71.373,-0.2441,-0.6104,0.061,-11101,1400,430
94.426863294,0.0752,-0.0537,1.0068,-3.01,-5.504,-71.356,0.0,-0.8545,0.2441,-11093,1399,449
94.526863331,0.0884,-0.0454,1.0088,-3.01,-5.51,-71.312,-0.1221,-0.6104,0.3662,-11084,1403,441
94.626863405,0.082,-0.0542,1.0117,-3.01,-5.51,-71.296,0.0,-0.4883,0.061,-11100,1415,429
94.72686346,0.0757,-0.0439,1.0117,-3.016,-5.499,-71.274,-0.1221,-0.4883,0.1831,-11105,1419,456
94.826863479,0.0835,-0.0498,1.0078,-3.01,-5.499,-71.241,-0.061,-0.6104,0.3052,-11119,1406,432
94.92686359,0.0649,-0.0552,1.0146,-3.005,-5.499,-71.208,-0.3052,-0.3052,0.3052,-11095,1401,447
95.026863608,0.0835,-0.0508,1.0259,-2.999,-5.471,-71.18,0.0,-0.3052,0.6104,-11099,1392,436
95.126863682,0.0674,-0.0474,1.0244,-2.999,-5.394,-71.12,0.061,-0.1831,0.4883,-11106,1403,442
95.226863738,0.0903,-0.0474,1.0127,-2.994,-5.394,-71.104,0.1221,-0.9766,0.1831,-11094,1396,428
95.326863775,0.0869,-0.0371,1.0122,-2.999,-5.383,-71.049,-0.061,0.2441,0.6714,-11094,1398,431
95.426863849,0.0635,-0.0557,1.0015,-2.999,-5.389,-71.016,-0.2441,-0.8545,-0.1221,-11112,1408,438
95.526863867,0.0698,-0.0479,1.0103,-2.999,-5.427,-71.01,-0.061,-0.7935,0.3052,-11123,1407,428
95.626863923,0.0903,-0.0488,1.0317,-2.977,-5.4,-70.95,-0.061,-0.5493,0.9766,-11097,1408,421
95.726864052,0.0991,-0.0522,1.0488,-2.983,-5.356,-70.906,0.2441,-1.1597,0.3052,-11081,1420,429
95.826864164,0.0996,-0.0327,1.0117,-2.994,-5.356,-70.895,0.2441,-0.4272,0.0,-11092,1419,428
95.926864238,0.0688,-0.0469,1.0083,-2.994,-5.372,-70.873,-0.061,0.0,0.3662,-11097,1407,423
96.026864275,0.0635,-0.0562,1.0103,-2.977,-5.405,-70.845,-0.061,-1.709,-0.4272,-11101,1414,415
96.12686433,0.0825,-0.0483,1.0161,-2.983,-5.559,-70.933,-0.1221,-2.9907,-0.8545,-11103,1406,439
96.226864404,0.0962,-0.0356,0.9893,-2.983,-5.603,-70.928,0.0,0.6714,1.0376,-11118,1402,434
96.326864497,0.0825,-0.0605,1.0298,-2.977,-5.515,-70.829,-0.2441,-0.4272,0.3662,-11121,1403,462
96.426864515,0.0771,-0.0459,1.0078,-2.977,-5.554,-70.845,0.1221,-0.9766,-0.2441,-11117,1414,466
96.526864663,0.0796,-0.0356,1.0132,-2.961,-5.543,-70.801,-0.061,-0.061,0.8545,-11113,1400,441
96.626864756,0.0859,-0.0781,1.0215,-2.95,-5.526,-70.757,-0.1221,-1.0986,0.0,-11088,1401,453
96.726864793,0.0894,-0.0303,1.0103,-3.005,-5.554,-70.741,0.0,0.0,0.5493,-11087,1399,460
96.826864904,0.0723,-0.041,1.0059,-2.994,-5.515,-70.692,-0.1221,-0.4883,0.0,-11082,1402,456
96.926865015,0.0801,-0.0601,1.0029,-3.005,-5.515,-70.703,-0.3052,-0.3662,0.1221,-11093,1407,479
97.026865052,0.0591,-0.0361,0.9873,-2.994,-5.526,-70.637,-0.2441,-0.6104,0.4272,-11093,1414,454
97.12686507,0.0752,-0.0586,1.0044,-2.966,-5.537,-70.615,-0.4272,-1.0376,0.1831,-11107,1415,472
97.226865107,0.0869,-0.0562,0.9941,-2.972,-5.515,-70.576,0.0,-0.1221,0.6104,-11106,1408,484
97.326865144,0.0864,-0.041,1.0132,-2.988,-5.499,-70.538,-0.7935,-0.7935,-0.1221,-11094,1405,452
97.426865144,0.0708,-0.0249,1.0034,-2.955,-5.543,-70.56,0.7935,-1.0376,-0.2441,-11084,1406,465
97.5268652,0.0928,-0.0879,1.0083,-2.955,-5.554,-70.538,-0.7935,-0.061,0.8545,-11095,1394,459
97.626865311,0.0757,-0.0303,0.9951,-3.021,-5.521,-70.433,-0.061,0.0,0.4272,-11088,1397,451
97.726865403,0.0728,-0.0127,0.9932,-2.999,-5.559,-70.439,-0.2441,-1.2817,-0.6714,-11080,1413,450
97.826865477,0.0806,-0.0884,1.0522,-2.889,-5.576,-70.477,0.1831,-0.5493,0.1221,-11094,1398,455
97.926865477,0.1011,-0.0479,1.022,-3.016,-5.499,-70.373,0.1831,0.0,1.4648,-11106,1410,450
98.026865514,0.0684,0.0034,0.979,-3.027,-5.515,-70.307,-0.061,-0.6104,-0.2441,-11083,1405,461
98.126865533,0.0591,-0.1006,1.0337,-2.895,-5.592,-70.395,-0.4883,-1.4038,-0.8545,-11104,1409,445
98.226865662,0.1021,-0.0698,1.0293,-2.994,-5.537,-70.329,0.4272,-0.1221,1.709,-11100,1417,449
98.326865736,0.0811,0.0039,0.9863,-3.038,-5.482,-70.214,-0.3662,-0.4883,0.2441,-11080,1403,461
98.426865755,0.0859,-0.0386,1.0254,-2.911,-5.554,-70.285,0.7935,-1.4038,-0.9766,-11088,1388,474
98.526865755,0.0942,-0.0864,0.9868,-2.988,-5.532,-70.263,-0.6714,0.1221,1.2817,-11115,1421,439
98.626865829,0.0684,-0.0215,0.9927,-2.994,-5.493,-70.164,-0.1831,-0.3662,0.0,-11098,1402,461
98.726865958,0.0718,-0.0684,1.0093,-2.961,-5.57,-70.203,-0.6714,-1.0986,-0.2441,-11098,1416,454
98.826865977,0.0815,-0.0615,1.0098,-2.983,-5.504,-70.137,0.0,0.3052,1.1597,-11086,1398,438
98.926866014,0.0742,-0.0225,1.0117,-2.994,-5.504,-70.098,-0.2441,-1.6479,-0.6104,-11098,1405,475
99.026866125,0.0957,-0.0571,1.0137,-2.966,-5.537,-70.12,-0.1831,-0.1221,0.5493,-11096,1413,460
99.126866162,0.0771,-0.0513,1.0244,-2.983,-5.466,-70.027,-0.061,-0.061,0.6714,-11081,1418,444
99.226866273,0.0713,-0.0405,1.0049,-2.977,-5.537,-70.043,0.0,-1.77,-0.6104,-11057,1434,520
99.326866328,0.0796,-0.0474,1.0078,-2.972,-5.565,-70.016,-0.1831,0.0,1.0376,-11065,1427,499
99.426866384,0.0859,-0.0601,1.0083,-2.972,-5.515,-69.928,-0.061,-0.7324,0.2441,-11065,1423,465
99.526866439,0.0835,-0.0444,1.0083,-2.977,-5.581,-69.972,-0.1831,-1.0986,-0.5493,-11064,1428,457
99.626866495,0.0791,-0.0439,1.0151,-2.972,-5.554,-69.939,-0.1221,0.0,0.8545,-11065,1416,469
99.726866587,0.083,-0.0547,1.0156,-2.972,-5.526,-69.884,-0.1831,-0.9155,0.061,-11075,1427,456
99.82686668,0.083,-0.0454,1.0059,-2.977,-5.565,-69.873,-0.061,-0.5493,0.2441,-11074,1403,462
99.926866717,0.0801,-0.0459,1.0103,-2.972,-5.532,-69.824,-0.061,-0.1831,0.4883,-11080,1403,465
100.026866772,0.0747,-0.0552,1.0103,-2.972,-5.537,-69.818,-0.1831,-1.0376,-0.2441,-11088,1415,457
100.126866865,0.0786,-0.0425,1.0078,-2.966,-5.554,-69.802,0.0,-0.4883,0.4883,-11091,1408,455
100.226866883,0.0874,-0.0508,1.0156,-2.966,-5.532,-69.747,-0.2441,-0.6714,0.3662,-11098,1412,472
100.326866902,0.085,-0.0498,1.0161,-2.972,-5.565,-69.741,-0.061,-0.9766,-0.061,-11109,1419,463
100.426867031,0.083,-0.0396,1.0093,-2.966,-5.581,-69.725,-0.061,-0.3662,0.4272,-11093,1424,453
100.52686705,0.0796,-0.0532,1.0142,-2.961,-5.548,-69.675,-0.1221,-0.3662,0.3662,-11091,1419,453
100.626867068,0.0801,-0.0454,1.0103,-2.966,-5.559,-69.659,-0.1221,-0.8545,0.0,-11076,1422,467
100.726867179,0.0762,-0.0444,1.0098,-2.961,-5.57,-69.642,-0.061,-0.5493,0.3662,-11070,1420,470
100.826867272,0.083,-0.0557,1.0093,-2.961,-5.554,-69.598,-0.061,-0.6104,0.3052,-11094,1415,431
100.92686729,0.0835,-0.0459,1.0117,-2.961,-5.565,-69.582,-0.061,-0.7935,0.061,-11078,1425,441
101.026867401,0.083,-0.0435,1.0059,-2.955,-5.57,-69.56,-0.1221,-0.4883,0.3662,-11095,1421,441
101.126867494,0.0806,-0.0557,1.0142,-2.955,-5.565,-69.527,-0.1221,-0.6104,0.3052,-11083,1425,462
101.226867586,0.0815,-0.042,1.0078,-2.966,-5.576,-69.5,-0.061,-0.6104,0.1221,-11103,1421,460
101.326867623,0.0796,-0.0474,1.0122,-2.961,-5.576,-69.478,-0.061,-0.4883,0.2441,-11082,1406,446
101.426867716,0.0786,-0.0498,1.0112,-2.961,-5.565,-69.445,-0.1221,-0.5493,0.3052,-11080,1415,447
101.526867808,0.0811,-0.0444,1.0098,-2.966,-5.57,-69.423,-0.061,-0.8545,0.1221,-11080,1418,457
101.626867882,0.083,-0.0498,1.0088,-2.961,-5.576,-69.395,-0.061,-0.4883,0.3662,-11088,1440,452
101.726867938,0.082,-0.0488,1.0093,-2.961,-5.57,-69.362,-0.1831,-0.5493,0.1831,-11078,1409,421
101.826867975,0.0791,-0.0527,1.0063,-2.961,-5.576,-69.346,-0.061,-0.6714,0.1221,-11093,1412,450
101.926867993,0.0796,-0.0459,1.0103,-2.961,-5.581,-69.313,-0.061,-0.6104,0.3052,-11088,1425,434
102.026868123,0.083,-0.0503,1.0107,-2.955,-5.576,-69.285,0.0,-0.7324,0.2441,-11086,1434,459
102.126868178,0.0894,-0.0474,1.0073,-2.955,-5.576,-69.258,-0.061,-0.4272,0.2441,-11105,1422,460
102.226868252,0.0786,-0.0479,1.0146,-2.955,-5.57,-69.236,-0.1221,-0.4883,0.1831,-11091,1423,458
102.326868363,0.0776,-0.0449,1.0073,-2.961,-5.576,-69.208,-0.1221,-0.7324,0.3052,-11099,1423,447
102.4268684,0.0825,-0.0508,1.0088,-2.955,-5.57,-69.175,-0.061,-0.6104,0.3662,-11095,1411,447
102.526868456,0.0806,-0.0469,1.0107,-2.955,-5.581,-69.148,-0.1221,-0.7324,0.1831,-11082,1414,451
102.626868585,0.0811,-0.0483,1.0103,-2.944,-5.532,-69.142,0.0,0.0,0.0,-11093,1428,453
102.726868622,0.0884,-0.0479,1.0083,-2.933,-5.477,-69.142,0.0,0.0,0.0,-11094,1414,441
102.826868678,0.0815,-0.0474,1.0112,-2.928,-5.433,-69.148,-0.061,0.2441,-0.1221,-11073,1410,452
102.926868678,0.0757,-0.0488,1.0122,-2.911,-5.378,-69.159,0.0,0.061,-0.061,-11088,1407,456
103.026868752,0.0811,-0.0508,1.0098,-2.906,-5.323,-69.159,0.0,0.0,0.0,-11083,1415,453
103.126868789,0.0835,-0.0493,1.0044,-2.889,-5.279,-69.159,0.061,0.0,0.0,-11081,1415,447
103.226868863,0.0815,-0.0503,1.0093,-2.884,-5.24,-69.159,-0.061,-0.061,0.0,-11085,1398,445
103.326868992,0.0776,-0.0527,1.0059,-2.878,-5.208,-69.159,0.061,0.0,0.0,-11064,1416,466
103.426869122,0.084,-0.0444,1.0132,-2.878,-5.169,-69.159,0.0,0.0,0.0,-11074,1399,453
103.526869177,0.0835,-0.0454,1.0073,-2.867,-5.142,-69.159,0.0,0.0,0.0,-11082,1413,437
103.626869233,0.0825,-0.0483,1.0137,-2.862,-5.109,-69.159,-0.061,0.0,0.0,-11076,1407,448
103.726869325,0.0791,-0.0518,1.0059,-2.851,-5.076,-69.159,0.061,0.0,0.0,-11087,1411,461
103.826869344,0.0796,-0.0415,1.0142,-2.845,-5.048,-69.159,-0.061,-0.061,0.0,-11063,1401,455
103.926869474,0.0791,-0.0596,1.0107,-2.834,-5.021,-69.159,0.061,-0.1221,0.0,-11079,1427,463
104.026869566,0.0864,-0.0376,1.0103,-2.84,-5.004,-69.159,0.0,-0.061,0.0,-11076,1418,469
104.126869603,0.0845,-0.0532,1.0073,-2.823,-4.982,-69.159,0.0,0.1831,0.0,-11077,1419,452
104.226869733,0.0757,-0.0483,1.0156,-2.829,-4.96,-69.159,0.0,-0.061,0.0,-11072,1412,457
104.326869788,0.0806,-0.0435,1.0054,-2.823,-4.944,-69.159,0.0,0.0,0.0,-11083,1413,458
104.426869788,0.0825,-0.0537,1.0122,-2.812,-4.916,-69.159,0.0,0.0,0.0,-11064,1412,474
104.526869862,0.082,-0.0488,1.0107,-2.812,-4.9,-69.159,0.0,0.0,0.0,-11081,1415,463
104.626869899,0.0786,-0.0464,1.0107,-2.807,-4.883,-69.159,0.0,0.0,0.0,-11079,1416,460
104.726870029,0.0801,-0.0513,1.0122,-2.807,-4.861,-69.159,0.0,0.0,0.0,-11089,1412,457
104.826870103,0.0815,-0.0439,1.0112,-2.807,-4.845,-69.159,0.0,-0.061,0.0,-11063,1410,464
104.926870195,0.0806,-0.0508,1.0112,-2.796,-4.834,-69.159,0.0,0.0,0.0,-11073,1418,468
105.026870269,0.0815,-0.0469,1.0117,-2.796,-4.828,-69.159,0.0,-0.1831,0.0,-11084,1410,493
105.126870306,0.0835,-0.0439,1.0127,-2.796,-4.828,-69.159,0.061,-0.1221,0.0,-11069,1406,458
105.226870399,0.0918,-0.0483,1.0103,-2.785,-4.79,-69.159,0.061,0.5493,0.0,-11091,1416,463
105.326870491,0.0977,-0.0474,1.019,-2.791,-4.702,-69.137,-0.061,1.2207,0.4883,-11078,1419,467
105.426870491,0.0864,-0.0439,1.0234,-2.796,-4.543,-69.071,0.1831,1.4038,0.7324,-11043,1412,445
105.526870565,0.0664,-0.0469,1.0151,-2.796,-4.482,-69.071,0.0,-0.061,-0.7935,-11044,1420,457
105.626870584,0.0723,-0.0493,1.0005,-2.791,-4.499,-69.104,0.1221,-0.1221,0.4272,-11042,1416,454
105.726870713,0.0854,-0.0449,1.0132,-2.785,-4.438,-69.027,0.0,0.4883,0.9155,-11025,1436,462
105.826870824,0.0698,-0.0557,1.0093,-2.78,-4.466,-69.049,-0.1831,-0.6104,-0.9766,-11042,1422,447
105.926870917,0.0713,-0.0566,1.0,-2.796,-4.609,-69.17,0.0,-1.8921,-1.0376,-11063,1426,424
106.026871028,0.0889,-0.0327,0.9941,-2.785,-4.581,-69.142,-0.061,0.4883,0.9155,-11045,1434,443
106.126871157,0.0938,-0.0635,1.0205,-2.78,-4.537,-69.088,-0.3662,0.3052,-0.1221,-11047,1413,485
106.226871176,0.0679,-0.0508,1.0078,-2.785,-4.598,-69.153,-0.061,0.0,-0.6714,-11059,1428,461
106.326871231,0.0605,-0.0439,1.0107,-2.774,-4.565,-69.148,-0.061,0.4883,0.4883,-11048,1435,441
106.426871287,0.0747,-0.0537,1.0254,-2.774,-4.532,-69.137,0.0,-0.6714,-0.2441,-11033,1418,457
106.526871398,0.0972,-0.0493,1.0161,-2.774,-4.581,-69.17,0.061,-0.6714,-0.1831,-11040,1427,445
106.626871453,0.0835,-0.0371,1.0122,-2.78,-4.565,-69.153,0.0,0.6104,0.1831,-11052,1430,470
106.726871564,0.0791,-0.0581,1.0044,-2.791,-4.592,-69.181,0.0,-0.4883,-0.5493,-11054,1427,463
106.826871601,0.0654,-0.042,1.001,-2.796,-4.614,-69.219,0.0,-0.7324,0.061,-11069,1427,439
106.926871657,0.0908,-0.0537,1.0088,-2.785,-4.576,-69.186,-0.061,0.061,0.3662,-11064,1416,467
107.026871768,0.0913,-0.0479,1.0107,-2.791,-4.598,-69.214,-0.1221,-0.3052,-0.6714,-11069,1417,457
107.126871898,0.0889,-0.0352,1.0127,-2.791,-4.614,-69.236,0.0,0.3662,0.1831,-11074,1428,448
107.226871972,0.0713,-0.0537,1.0107,-2.785,-4.576,-69.214,-0.1831,0.1831,0.0,-11079,1427,459
107.32687199,0.082,-0.0566,1.0205,-2.785,-4.636,-69.23,0.1831,-0.7935,-0.1831,-11070,1422,435
107.426872138,0.0947,-0.0264,1.0044,-2.78,-4.752,-69.197,-0.061,0.0,0.1831,-11053,1472,446
107.526872249,0.0923,-0.0425,0.9917,-2.763,-4.741,-69.175,0.1831,0.1221,-0.1221,-11050,1483,445
107.626872268,0.063,-0.0552,1.0171,-2.763,-4.768,-69.23,-0.2441,-0.1831,-0.5493,-11040,1495,439
107.72687236,0.0835,-0.0459,1.0029,-2.769,-4.735,-69.225,0.1221,0.1221,0.4272,-11033,1504,434
107.82687249,0.0767,-0.0405,1.0078,-2.758,-4.73,-69.214,-0.2441,-0.1221,-0.2441,-11022,1505,463
107.926872619,0.0796,-0.0679,1.0078,-2.758,-4.796,-69.225,0.1831,-0.5493,0.061,-11032,1514,463
108.026872619,0.0967,-0.0166,1.0088,-2.763,-4.79,-69.208,0.3052,0.3052,0.1831,-11024,1519,433
108.126872693,0.0693,-0.0562,1.0205,-2.741,-4.807,-69.247,-0.4272,-0.4883,-0.7935,-11012,1516,410
108.226872749,0.0757,-0.0571,1.0195,-2.763,-4.818,-69.263,0.1831,0.0,0.5493,-11030,1532,438
108.326872749,0.0854,-0.0396,0.9873,-2.752,-4.774,-69.214,0.0,0.8545,0.2441,-11016,1531,413
108.426872804,0.0723,-0.0542,1.0073,-2.763,-4.702,-69.208,0.0,1.3428,-0.061,-11015,1519,411
108.526872804,0.0835,-0.064,0.9941,-2.785,-4.482,-69.225,-0.2441,2.9297,-0.1221,-10970,1526,429
108.62687286,0.0542,-0.0337,0.9985,-2.796,-4.301,-69.241,-0.2441,1.77,-0.1831,-10961,1527,444
108.726872989,0.0732,-0.0483,1.0254,-2.785,-4.076,-69.258,-0.3052,1.5869,0.0,-10915,1549,452
108.826873026,0.0737,-0.0625,1.0137,-2.791,-4.065,-69.219,0.0,-1.4648,0.4883,-10919,1552,438
108.926873082,0.0649,-0.0459,1.0132,-2.802,-4.23,-69.186,-0.061,-1.5869,-0.2441,-10953,1547,427
109.026873174,0.106,-0.0532,1.0054,-2.785,-4.4,-69.214,0.2441,-4.3335,-0.3052,-10953,1555,420
109.126873304,0.0308,-0.0479,0.9722,-2.78,-4.867,-69.236,0.1831,0.3662,-1.0376,-11023,1548,427
109.226873378,0.0669,-0.0645,1.0034,-2.758,-4.828,-69.252,-0.061,0.2441,0.6104,-11004,1541,437
109.326873415,0.0679,-0.0562,1.0049,-2.752,-4.79,-69.236,-0.1221,-0.2441,-0.2441,-10999,1550,426
109.426873526,0.0972,-0.0498,1.0254,-2.758,-4.812,-69.285,0.0,-0.9766,-0.2441,-11000,1551,418
109.526873581,0.0967,-0.0405,1.0015,-2.769,-4.818,-69.291,-0.1831,0.3662,0.1221,-11004,1537,428
109.626873655,0.1074,-0.0498,1.0117,-2.769,-4.785,-69.269,-0.1831,1.4648,0.3662,-10996,1551,433
109.726873674,0.0786,-0.0635,1.0156,-2.78,-4.449,-69.203,-0.4272,5.8594,0.7935,-10980,1545,418
109.826873711,0.0864,-0.0439,1.0122,-2.823,-3.917,-69.203,-0.1221,5.127,-0.2441,-10941,1543,389
109.926873766,0.0542,-0.0488,1.0171,-2.802,-3.895,-69.274,0.1221,-2.1973,-0.7935,-10916,1560,396
110.026873877,0.0498,-0.0464,1.0029,-2.807,-4.032,-69.291,-0.1221,-0.8545,0.1831,-10923,1555,413
110.126873896,0.0825,-0.0435,1.0117,-2.791,-4.191,-69.219,0.3052,-3.1738,0.9155,-10936,1558,414
110.226873951,0.0688,-0.0591,1.0137,-2.758,-4.493,-69.175,0.2441,-2.5024,-0.3662,-10979,1555,420
110.326874062,0.1235,-0.041,1.0093,-2.758,-4.603,-69.247,0.3662,-1.0986,-0.4272,-10989,1548,442
110.426874155,0.0806,-0.0537,1.0439,-2.752,-4.774,-69.274,-0.2441,0.3052,-0.7935,-11009,1540,447
110.526874247,0.042,-0.064,1.0078,-2.747,-4.807,-69.313,0.061,-0.9155,-0.061,-11035,1545,465
110.626874358,0.0796,-0.0464,0.9971,-2.774,-4.79,-69.318,0.061,0.2441,0.1221,-11020,1544,430
110.726874395,0.0864,-0.0386,0.9868,-2.812,-4.301,-69.23,-0.2441,7.5073,1.5259,-10983,1553,427
110.826874506,0.0889,-0.0566,1.0229,-2.818,-3.713,-69.203,-0.3662,5.3101,-0.3662,-10912,1550,404
110.926874506,0.0601,-0.0513,1.0049,-2.791,-3.543,-69.34,0.1831,0.0,-1.4648,-10896,1562,389
111.026874617,0.0366,-0.0532,1.0225,-2.763,-3.944,-69.373,0.061,-7.019,0.2441,-10941,1550,405
111.126874747,0.1084,-0.0454,1.0283,-2.747,-4.675,-69.274,0.7324,-9.5825,0.6714,-10992,1558,406
111.226874877,0.1802,-0.0146,0.958,-2.763,-4.828,-69.307,-0.1221,2.0142,0.0,-11013,1554,459
111.326874969,0.0693,-0.0513,0.96,-2.791,-4.697,-69.192,-0.6104,5.9814,1.5259,-11010,1565,452
111.426875025,0.0957,-0.0498,1.0234,-2.834,-3.834,-69.208,-0.6714,8.667,-0.6104,-10933,1585,411
111.52687508,0.0645,-0.0342,1.0278,-2.78,-3.543,-69.412,0.7935,-1.4648,-2.5024,-10893,1587,390
111.626875117,-0.0229,-0.0635,1.0034,-2.741,-4.136,-69.532,-0.4883,-6.6528,0.061,-10946,1577,370
111.726875173,0.1279,-0.0552,1.0288,-2.769,-4.224,-69.307,0.5493,-1.1597,3.1128,-10965,1593,419
111.826875265,0.1123,-0.0366,1.0073,-2.741,-4.57,-69.06,0.1221,-5.0659,0.4272,-10963,1587,418
111.926875321,0.1157,-0.0532,1.0103,-2.73,-4.801,-69.203,-0.4883,1.6479,-2.5635,-10994,1586,456
112.026875339,0.0771,-0.0688,1.0234,-2.763,-4.642,-69.302,0.0,2.1973,0.4883,-10992,1591,429
112.126875469,0.0405,-0.022,1.02,-2.774,-4.565,-69.28,0.2441,-0.7935,-0.3662,-10967,1579,436
112.226875487,0.0889,-0.0532,1.002,-2.73,-4.73,-69.307,0.1221,-2.8687,0.0,-10990,1587,440
112.326875617,0.1328,-0.0503,1.0176,-2.741,-4.746,-69.252,0.061,0.6714,0.9766,-10996,1594,443
112.426875746,0.0913,-0.041,0.998,-2.752,-4.752,-69.214,-0.1221,0.4883,-0.7935,-10984,1594,439
112.52687582,0.063,-0.0542,1.0122,-2.741,-4.79,-69.324,-0.1831,0.2441,-0.9155,-11004,1586,418
112.62687595,0.0801,-0.0537,1.0117,-2.747,-4.697,-69.329,0.0,0.6714,0.5493,-10990,1578,420
112.726876042,0.0796,-0.0405,1.0171,-2.747,-4.691,-69.296,0.061,-0.7935,-0.061,-10984,1583,432
112.826876061,0.0962,-0.0508,1.0024,-2.736,-4.735,-69.313,-0.061,-0.2441,0.0,-10998,1590,427
112.926876172,0.0806,-0.0562,1.019,-2.747,-4.735,-69.307,0.0,0.7324,0.0,-10992,1601,420
113.026876209,0.0811,-0.0371,1.0049,-2.752,-4.697,-69.329,0.0,-0.3052,-0.3052,-10996,1590,429
113.12687632,0.0801,-0.0464,1.0142,-2.741,-4.719,-69.346,0.061,0.3052,0.0,-11016,1598,431
113.226876357,0.0874,-0.0522,1.0156,-2.741,-4.702,-69.335,0.0,-0.4883,0.061,-11004,1599,425
113.326876468,0.0776,-0.0444,1.0078,-2.741,-4.741,-69.346,0.061,0.0,-0.1831,-10984,1597,405
113.426876468,0.0879,-0.0493,1.0103,-2.736,-4.741,-69.34,0.0,-0.1831,0.2441,-11004,1580,408
113.526876579,0.085,-0.0454,1.0142,-2.741,-4.741,-69.335,0.0,0.1221,-0.061,-11001,1585,429
113.626876653,0.082,-0.0498,1.0063,-2.736,-4.757,-69.335,0.0,-0.3052,0.0,-10999,1583,422
113.726876727,0.0898,-0.0444,1.0132,-2.741,-4.757,-69.335,0.0,0.1221,0.0,-10997,1587,427
113.826876838,0.0791,-0.0508,1.0083,-2.736,-4.763,-69.335,0.0,-0.061,0.0,-10985,1580,417
113.92687686,0.082,-0.0454,1.0117,-2.736,-4.774,-69.335,0.0,-0.1221,0.0,-10992,1594,429
114.026876931,0.0879,-0.0479,1.0088,-2.736,-4.763,-69.335,0.0,0.0,0.0,-10994,1597,429
114.126877002,0.0889,-0.0479,1.0122,-2.736,-4.768,-69.335,0.0,0.0,0.0,-10996,1593,423
114.226877073,0.0806,-0.0474,1.0078,-2.736,-4.768,-69.335,0.0,0.1221,0.0,-10971,1609,448
114.326877143,0.082,-0.0513,1.0112,-2.736,-4.763,-69.335,0.0,-0.061,0.0,-10998,1595,422
114.426877196,0.0845,-0.0454,1.0093,-2.736,-4.763,-69.335,0.0,0.0,0.0,-10995,1592,425
114.526877211,0.083,-0.0488,1.0098,-2.736,-4.763,-69.335,0.0,0.0,0.0,-10987,1599,417
114.626877338,0.0835,-0.0459,1.0088,-2.736,-4.763,-69.335,0.0,0.0,0.0,-10993,1591,435
114.726877464,0.0879,-0.0508,1.0098,-2.73,-4.763,-69.335,0.0,0.0,0.0,-11013,1593,424
114.826877591,0.0825,-0.0449,1.0034,-2.736,-4.763,-69.335,0.0,-0.061,0.0,-11001,1591,421
114.926877703,0.0928,-0.0439,1.0049,-2.73,-4.774,-69.335,-0.1831,0.1831,0.0,-11008,1596,426
115.026877821,0.0859,-0.0532,1.0122,-2.73,-4.779,-69.335,0.0,-0.061,0.0,-10988,1602,434
115.126877901,0.084,-0.0503,1.0156,-2.73,-4.785,-69.335,0.0,-0.1221,0.0,-11011,1599,443
115.226877907,0.0854,-0.0469,1.0117,-2.73,-4.785,-69.335,0.061,0.0,0.0,-10991,1604,414
115.326877951,0.0845,-0.0459,1.0103,-2.73,-4.79,-69.335,0.0,0.0,0.0,-10997,1594,422
115.426878068,0.0752,-0.0566,1.0068,-2.73,-4.768,-69.346,0.061,0.0,0.0,-10998,1598,429
115.526878075,0.0869,-0.0391,1.0103,-2.736,-4.757,-69.351,-0.061,0.0,0.0,-10990,1583,432
115.626878118,0.0723,-0.0571,1.0181,-2.725,-4.741,-69.362,0.0,0.061,-0.2441,-10992,1582,448
115.72687818,0.0903,-0.0625,1.0098,-2.73,-4.752,-69.368,0.0,-0.2441,0.1221,-11004,1579,448
115.826878242,0.0903,-0.0303,1.0107,-2.747,-4.774,-69.351,0.1831,-0.1221,0.1831,-11019,1591,420
115.926878362,0.0864,-0.0498,1.0024,-2.725,-4.785,-69.362,-0.1221,-0.2441,-0.2441,-11012,1612,433
116.026878396,0.0869,-0.0596,1.019,-2.725,-4.818,-69.373,0.0,0.4883,0.0,-11006,1647,443
116.126878504,0.0796,-0.0376,1.0005,-2.73,-4.801,-69.368,0.061,0.0,0.0,-10982,1659,438
