Time,AccX,AccY,AccZ,AngleX,AngleY,AngleZ
"[5987.918087732, None, None, None, -9.657, -1.34, 165.987]"
"[5987.918087732, None, None, None, -9.657, -1.34, 165.987]","[5988.01808779, 0.0239, -0.1694, 0.9966, -9.657, -1.34, 165.987]"
"[5987.918087732, None, None, None, -9.657, -1.34, 165.987]","[5988.01808779, 0.0239, -0.1694, 0.9966, -9.657, -1.34, 165.987]","[5988.118087885, 0.0225, -0.1699, 0.999, -9.657, -1.34, 165.987]"
"[5987.918087732, None, None, None, -9.657, -1.34, 165.987]","[5988.01808779, 0.0239, -0.1694, 0.9966, -9.657, -1.34, 165.987]","[5988.118087885, 0.0225, -0.1699, 0.999, -9.657, -1.34, 165.987]","[5988.218087925, 0.022, -0.1689, 0.998, -9.657, -1.346, 165.987]"
"[5987.918087732, None, None, None, -9.657, -1.34, 165.987]","[5988.01808779, 0.0239, -0.1694, 0.9966, -9.657, -1.34, 165.987]","[5988.118087885, 0.0225, -0.1699, 0.999, -9.657, -1.34, 165.987]","[5988.218087925, 0.022, -0.1689, 0.998, -9.657, -1.346, 165.987]","[5988.318087983, 0.0229, -0.1709, 0.9976, -9.657, -1.346, 165.987]"
"[5987.918087732, None, None, None, -9.657, -1.34, 165.987]","[5988.01808779, 0.0239, -0.1694, 0.9966, -9.657, -1.34, 165.987]","[5988.118087885, 0.0225, -0.1699, 0.999, -9.657, -1.34, 165.987]","[5988.218087925, 0.022, -0.1689, 0.998, -9.657, -1.346, 165.987]","[5988.318087983, 0.0229, -0.1709, 0.9976, -9.657, -1.346, 165.987]","[5988.418088078, 0.0264, -0.1709, 0.9941, -9.657, -1.346, 165.987]"
"[5987.918087732, None, None, None, -9.657, -1.34, 165.987]","[5988.01808779, 0.0239, -0.1694, 0.9966, -9.657, -1.34, 165.987]","[5988.118087885, 0.0225, -0.1699, 0.999, -9.657, -1.34, 165.987]","[5988.218087925, 0.022, -0.1689, 0.998, -9.657, -1.346, 165.987]","[5988.318087983, 0.0229, -0.1709, 0.9976, -9.657, -1.346, 165.987]","[5988.418088078, 0.0264, -0.1709, 0.9941, -9.657, -1.346, 165.987]","[5988.518088117, 0.02, -0.1675, 0.999, -9.657, -1.346, 165.987]"
"[5987.918087732, None, None, None, -9.657, -1.34, 165.987]","[5988.01808779, 0.0239, -0.1694, 0.9966, -9.657, -1.34, 165.987]","[5988.118087885, 0.0225, -0.1699, 0.999, -9.657, -1.34, 165.987]","[5988.218087925, 0.022, -0.1689, 0.998, -9.657, -1.346, 165.987]","[5988.318087983, 0.0229, -0.1709, 0.9976, -9.657, -1.346, 165.987]","[5988.418088078, 0.0264, -0.1709, 0.9941, -9.657, -1.346, 165.987]","[5988.518088117, 0.02, -0.1675, 0.999, -9.657, -1.346, 165.987]","[5988.618088194, 0.0229, -0.1675, 0.9995, -9.657, -1.34, 165.987]"
"[5987.918087732, None, None, None, -9.657, -1.34, 165.987]","[5988.01808779, 0.0239, -0.1694, 0.9966, -9.657, -1.34, 165.987]","[5988.118087885, 0.0225, -0.1699, 0.999, -9.657, -1.34, 165.987]","[5988.218087925, 0.022, -0.1689, 0.998, -9.657, -1.346, 165.987]","[5988.318087983, 0.0229, -0.1709, 0.9976, -9.657, -1.346, 165.987]","[5988.418088078, 0.0264, -0.1709, 0.9941, -9.657, -1.346, 165.987]","[5988.518088117, 0.02, -0.1675, 0.999, -9.657, -1.346, 165.987]","[5988.618088194, 0.0229, -0.1675, 0.9995, -9.657, -1.34, 165.987]","[5988.718088307, 0.0244, -0.1709, 0.9961, -9.662, -1.34, 165.987]"
"[5987.918087732, None, None, None, -9.657, -1.34, 165.987]","[5988.01808779, 0.0239, -0.1694, 0.9966, -9.657, -1.34, 165.987]","[5988.118087885, 0.0225, -0.1699, 0.999, -9.657, -1.34, 165.987]","[5988.218087925, 0.022, -0.1689, 0.998, -9.657, -1.346, 165.987]","[5988.318087983, 0.0229, -0.1709, 0.9976, -9.657, -1.346, 165.987]","[5988.418088078, 0.0264, -0.1709, 0.9941, -9.657, -1.346, 165.987]","[5988.518088117, 0.02, -0.1675, 0.999, -9.657, -1.346, 165.987]","[5988.618088194, 0.0229, -0.1675, 0.9995, -9.657, -1.34, 165.987]","[5988.718088307, 0.0244, -0.1709, 0.9961, -9.662, -1.34, 165.987]","[5988.818088347, 0.0249, -0.1685, 0.9951, -9.662, -1.34, 165.987]"
"[5987.918087732, None, None, None, -9.657, -1.34, 165.987]","[5988.01808779, 0.0239, -0.1694, 0.9966, -9.657, -1.34, 165.987]","[5988.118087885, 0.0225, -0.1699, 0.999, -9.657, -1.34, 165.987]","[5988.218087925, 0.022, -0.1689, 0.998, -9.657, -1.346, 165.987]","[5988.318087983, 0.0229, -0.1709, 0.9976, -9.657, -1.346, 165.987]","[5988.418088078, 0.0264, -0.1709, 0.9941, -9.657, -1.346, 165.987]","[5988.518088117, 0.02, -0.1675, 0.999, -9.657, -1.346, 165.987]","[5988.618088194, 0.0229, -0.1675, 0.9995, -9.657, -1.34, 165.987]","[5988.718088307, 0.0244, -0.1709, 0.9961, -9.662, -1.34, 165.987]","[5988.818088347, 0.0249, -0.1685, 0.9951, -9.662, -1.34, 165.987]","[5988.91808846, 0.0234, -0.1665, 0.9971, -9.651, -1.335, 165.987]"
"[5987.918087732, None, None, None, -9.657, -1.34, 165.987]","[5988.01808779, 0.0239, -0.1694, 0.9966, -9.657, -1.34, 165.987]","[5988.118087885, 0.0225, -0.1699, 0.999, -9.657, -1.34, 165.987]","[5988.218087925, 0.022, -0.1689, 0.998, -9.657, -1.346, 165.987]","[5988.318087983, 0.0229, -0.1709, 0.9976, -9.657, -1.346, 165.987]","[5988.418088078, 0.0264, -0.1709, 0.9941, -9.657, -1.346, 165.987]","[5988.518088117, 0.02, -0.1675, 0.999, -9.657, -1.346, 165.987]","[5988.618088194, 0.0229, -0.1675, 0.9995, -9.657, -1.34, 165.987]","[5988.718088307, 0.0244, -0.1709, 0.9961, -9.662, -1.34, 165.987]","[5988.818088347, 0.0249, -0.1685, 0.9951, -9.662, -1.34, 165.987]","[5988.91808846, 0.0234, -0.1665, 0.9971, -9.651, -1.335, 165.987]","[5989.018088537, 0.0205, -0.1704, 1.0015, -9.668, -1.335, 165.987]"
"[5987.918087732, None, None, None, -9.657, -1.34, 165.987]","[5988.01808779, 0.0239, -0.1694, 0.9966, -9.657, -1.34, 165.987]","[5988.118087885, 0.0225, -0.1699, 0.999, -9.657, -1.34, 165.987]","[5988.218087925, 0.022, -0.1689, 0.998, -9.657, -1.346, 165.987]","[5988.318087983, 0.0229, -0.1709, 0.9976, -9.657, -1.346, 165.987]","[5988.418088078, 0.0264, -0.1709, 0.9941, -9.657, -1.346, 165.987]","[5988.518088117, 0.02, -0.1675, 0.999, -9.657, -1.346, 165.987]","[5988.618088194, 0.0229, -0.1675, 0.9995, -9.657, -1.34, 165.987]","[5988.718088307, 0.0244, -0.1709, 0.9961, -9.662, -1.34, 165.987]","[5988.818088347, 0.0249, -0.1685, 0.9951, -9.662, -1.34, 165.987]","[5988.91808846, 0.0234, -0.1665, 0.9971, -9.651, -1.335, 165.987]","[5989.018088537, 0.0205, -0.1704, 1.0015, -9.668, -1.335, 165.987]","[5989.118088539, 0.0273, -0.1758, 1.0005, -9.701, -1.335, 165.987]"
"[5987.918087732, None, None, None, -9.657, -1.34, 165.987]","[5988.01808779, 0.0239, -0.1694, 0.9966, -9.657, -1.34, 165.987]","[5988.118087885, 0.0225, -0.1699, 0.999, -9.657, -1.34, 165.987]","[5988.218087925, 0.022, -0.1689, 0.998, -9.657, -1.346, 165.987]","[5988.318087983, 0.0229, -0.1709, 0.9976, -9.657, -1.346, 165.987]","[5988.418088078, 0.0264, -0.1709, 0.9941, -9.657, -1.346, 165.987]","[5988.518088117, 0.02, -0.1675, 0.999, -9.657, -1.346, 165.987]","[5988.618088194, 0.0229, -0.1675, 0.9995, -9.657, -1.34, 165.987]","[5988.718088307, 0.0244, -0.1709, 0.9961, -9.662, -1.34, 165.987]","[5988.818088347, 0.0249, -0.1685, 0.9951, -9.662, -1.34, 165.987]","[5988.91808846, 0.0234, -0.1665, 0.9971, -9.651, -1.335, 165.987]","[5989.018088537, 0.0205, -0.1704, 1.0015, -9.668, -1.335, 165.987]","[5989.118088539, 0.0273, -0.1758, 1.0005, -9.701, -1.335, 165.987]","[5989.21808856, 0.0254, -0.1758, 0.9961, -9.701, -1.34, 165.987]"
"[5987.918087732, None, None, None, -9.657, -1.34, 165.987]","[5988.01808779, 0.0239, -0.1694, 0.9966, -9.657, -1.34, 165.987]","[5988.118087885, 0.0225, -0.1699, 0.999, -9.657, -1.34, 165.987]","[5988.218087925, 0.022, -0.1689, 0.998, -9.657, -1.346, 165.987]","[5988.318087983, 0.0229, -0.1709, 0.9976, -9.657, -1.346, 165.987]","[5988.418088078, 0.0264, -0.1709, 0.9941, -9.657, -1.346, 165.987]","[5988.518088117, 0.02, -0.1675, 0.999, -9.657, -1.346, 165.987]","[5988.618088194, 0.0229, -0.1675, 0.9995, -9.657, -1.34, 165.987]","[5988.718088307, 0.0244, -0.1709, 0.9961, -9.662, -1.34, 165.987]","[5988.818088347, 0.0249, -0.1685, 0.9951, -9.662, -1.34, 165.987]","[5988.91808846, 0.0234, -0.1665, 0.9971, -9.651, -1.335, 165.987]","[5989.018088537, 0.0205, -0.1704, 1.0015, -9.668, -1.335, 165.987]","[5989.118088539, 0.0273, -0.1758, 1.0005, -9.701, -1.335, 165.987]","[5989.21808856, 0.0254, -0.1758, 0.9961, -9.701, -1.34, 165.987]","[5989.318088581, 0.0283, -0.1602, 0.9951, -9.635, -1.357, 165.992]"
"[5987.918087732, None, None, None, -9.657, -1.34, 165.987]","[5988.01808779, 0.0239, -0.1694, 0.9966, -9.657, -1.34, 165.987]","[5988.118087885, 0.0225, -0.1699, 0.999, -9.657, -1.34, 165.987]","[5988.218087925, 0.022, -0.1689, 0.998, -9.657, -1.346, 165.987]","[5988.318087983, 0.0229, -0.1709, 0.9976, -9.657, -1.346, 165.987]","[5988.418088078, 0.0264, -0.1709, 0.9941, -9.657, -1.346, 165.987]","[5988.518088117, 0.02, -0.1675, 0.999, -9.657, -1.346, 165.987]","[5988.618088194, 0.0229, -0.1675, 0.9995, -9.657, -1.34, 165.987]","[5988.718088307, 0.0244, -0.1709, 0.9961, -9.662, -1.34, 165.987]","[5988.818088347, 0.0249, -0.1685, 0.9951, -9.662, -1.34, 165.987]","[5988.91808846, 0.0234, -0.1665, 0.9971, -9.651, -1.335, 165.987]","[5989.018088537, 0.0205, -0.1704, 1.0015, -9.668, -1.335, 165.987]","[5989.118088539, 0.0273, -0.1758, 1.0005, -9.701, -1.335, 165.987]","[5989.21808856, 0.0254, -0.1758, 0.9961, -9.701, -1.34, 165.987]","[5989.318088581, 0.0283, -0.1602, 0.9951, -9.635, -1.357, 165.992]","[5989.418088695, 0.022, -0.1685, 1.0005, -9.63, -1.362, 165.992]"
"[5987.918087732, None, None, None, -9.657, -1.34, 165.987]","[5988.01808779, 0.0239, -0.1694, 0.9966, -9.657, -1.34, 165.987]","[5988.118087885, 0.0225, -0.1699, 0.999, -9.657, -1.34, 165.987]","[5988.218087925, 0.022, -0.1689, 0.998, -9.657, -1.346, 165.987]","[5988.318087983, 0.0229, -0.1709, 0.9976, -9.657, -1.346, 165.987]","[5988.418088078, 0.0264, -0.1709, 0.9941, -9.657, -1.346, 165.987]","[5988.518088117, 0.02, -0.1675, 0.999, -9.657, -1.346, 165.987]","[5988.618088194, 0.0229, -0.1675, 0.9995, -9.657, -1.34, 165.987]","[5988.718088307, 0.0244, -0.1709, 0.9961, -9.662, -1.34, 165.987]","[5988.818088347, 0.0249, -0.1685, 0.9951, -9.662, -1.34, 165.987]","[5988.91808846, 0.0234, -0.1665, 0.9971, -9.651, -1.335, 165.987]","[5989.018088537, 0.0205, -0.1704, 1.0015, -9.668, -1.335, 165.987]","[5989.118088539, 0.0273, -0.1758, 1.0005, -9.701, -1.335, 165.987]","[5989.21808856, 0.0254, -0.1758, 0.9961, -9.701, -1.34, 165.987]","[5989.318088581, 0.0283, -0.1602, 0.9951, -9.635, -1.357, 165.992]","[5989.418088695, 0.022, -0.1685, 1.0005, -9.63, -1.362, 165.992]","[5989.518088697, 0.0254, -0.1641, 0.9951, -9.624, -1.362, 165.992]"
"[5987.918087732, None, None, None, -9.657, -1.34, 165.987]","[5988.01808779, 0.0239, -0.1694, 0.9966, -9.657, -1.34, 165.987]","[5988.118087885, 0.0225, -0.1699, 0.999, -9.657, -1.34, 165.987]","[5988.218087925, 0.022, -0.1689, 0.998, -9.657, -1.346, 165.987]","[5988.318087983, 0.0229, -0.1709, 0.9976, -9.657, -1.346, 165.987]","[5988.418088078, 0.0264, -0.1709, 0.9941, -9.657, -1.346, 165.987]","[5988.518088117, 0.02, -0.1675, 0.999, -9.657, -1.346, 165.987]","[5988.618088194, 0.0229, -0.1675, 0.9995, -9.657, -1.34, 165.987]","[5988.718088307, 0.0244, -0.1709, 0.9961, -9.662, -1.34, 165.987]","[5988.818088347, 0.0249, -0.1685, 0.9951, -9.662, -1.34, 165.987]","[5988.91808846, 0.0234, -0.1665, 0.9971, -9.651, -1.335, 165.987]","[5989.018088537, 0.0205, -0.1704, 1.0015, -9.668, -1.335, 165.987]","[5989.118088539, 0.0273, -0.1758, 1.0005, -9.701, -1.335, 165.987]","[5989.21808856, 0.0254, -0.1758, 0.9961, -9.701, -1.34, 165.987]","[5989.318088581, 0.0283, -0.1602, 0.9951, -9.635, -1.357, 165.992]","[5989.418088695, 0.022, -0.1685, 1.0005, -9.63, -1.362, 165.992]","[5989.518088697, 0.0254, -0.1641, 0.9951, -9.624, -1.362, 165.992]","[5989.618088755, 0.0254, -0.1699, 0.9971, -9.63, -1.368, 165.992]"
"[5987.918087732, None, None, None, -9.657, -1.34, 165.987]","[5988.01808779, 0.0239, -0.1694, 0.9966, -9.657, -1.34, 165.987]","[5988.118087885, 0.0225, -0.1699, 0.999, -9.657, -1.34, 165.987]","[5988.218087925, 0.022, -0.1689, 0.998, -9.657, -1.346, 165.987]","[5988.318087983, 0.0229, -0.1709, 0.9976, -9.657, -1.346, 165.987]","[5988.418088078, 0.0264, -0.1709, 0.9941, -9.657, -1.346, 165.987]","[5988.518088117, 0.02, -0.1675, 0.999, -9.657, -1.346, 165.987]","[5988.618088194, 0.0229, -0.1675, 0.9995, -9.657, -1.34, 165.987]","[5988.718088307, 0.0244, -0.1709, 0.9961, -9.662, -1.34, 165.987]","[5988.818088347, 0.0249, -0.1685, 0.9951, -9.662, -1.34, 165.987]","[5988.91808846, 0.0234, -0.1665, 0.9971, -9.651, -1.335, 165.987]","[5989.018088537, 0.0205, -0.1704, 1.0015, -9.668, -1.335, 165.987]","[5989.118088539, 0.0273, -0.1758, 1.0005, -9.701, -1.335, 165.987]","[5989.21808856, 0.0254, -0.1758, 0.9961, -9.701, -1.34, 165.987]","[5989.318088581, 0.0283, -0.1602, 0.9951, -9.635, -1.357, 165.992]","[5989.418088695, 0.022, -0.1685, 1.0005, -9.63, -1.362, 165.992]","[5989.518088697, 0.0254, -0.1641, 0.9951, -9.624, -1.362, 165.992]","[5989.618088755, 0.0254, -0.1699, 0.9971, -9.63, -1.368, 165.992]","[5989.718088869, 0.0215, -0.1694, 0.9956, -9.613, -1.384, 165.992]"
"[5987.918087732, None, None, None, -9.657, -1.34, 165.987]","[5988.01808779, 0.0239, -0.1694, 0.9966, -9.657, -1.34, 165.987]","[5988.118087885, 0.0225, -0.1699, 0.999, -9.657, -1.34, 165.987]","[5988.218087925, 0.022, -0.1689, 0.998, -9.657, -1.346, 165.987]","[5988.318087983, 0.0229, -0.1709, 0.9976, -9.657, -1.346, 165.987]","[5988.418088078, 0.0264, -0.1709, 0.9941, -9.657, -1.346, 165.987]","[5988.518088117, 0.02, -0.1675, 0.999, -9.657, -1.346, 165.987]","[5988.618088194, 0.0229, -0.1675, 0.9995, -9.657, -1.34, 165.987]","[5988.718088307, 0.0244, -0.1709, 0.9961, -9.662, -1.34, 165.987]","[5988.818088347, 0.0249, -0.1685, 0.9951, -9.662, -1.34, 165.987]","[5988.91808846, 0.0234, -0.1665, 0.9971, -9.651, -1.335, 165.987]","[5989.018088537, 0.0205, -0.1704, 1.0015, -9.668, -1.335, 165.987]","[5989.118088539, 0.0273, -0.1758, 1.0005, -9.701, -1.335, 165.987]","[5989.21808856, 0.0254, -0.1758, 0.9961, -9.701, -1.34, 165.987]","[5989.318088581, 0.0283, -0.1602, 0.9951, -9.635, -1.357, 165.992]","[5989.418088695, 0.022, -0.1685, 1.0005, -9.63, -1.362, 165.992]","[5989.518088697, 0.0254, -0.1641, 0.9951, -9.624, -1.362, 165.992]","[5989.618088755, 0.0254, -0.1699, 0.9971, -9.63, -1.368, 165.992]","[5989.718088869, 0.0215, -0.1694, 0.9956, -9.613, -1.384, 165.992]","[5989.818088945, 0.0283, -0.1675, 0.9951, -9.591, -1.401, 165.998]"
"[5987.918087732, None, None, None, -9.657, -1.34, 165.987]","[5988.01808779, 0.0239, -0.1694, 0.9966, -9.657, -1.34, 165.987]","[5988.118087885, 0.0225, -0.1699, 0.999, -9.657, -1.34, 165.987]","[5988.218087925, 0.022, -0.1689, 0.998, -9.657, -1.346, 165.987]","[5988.318087983, 0.0229, -0.1709, 0.9976, -9.657, -1.346, 165.987]","[5988.418088078, 0.0264, -0.1709, 0.9941, -9.657, -1.346, 165.987]","[5988.518088117, 0.02, -0.1675, 0.999, -9.657, -1.346, 165.987]","[5988.618088194, 0.0229, -0.1675, 0.9995, -9.657, -1.34, 165.987]","[5988.718088307, 0.0244, -0.1709, 0.9961, -9.662, -1.34, 165.987]","[5988.818088347, 0.0249, -0.1685, 0.9951, -9.662, -1.34, 165.987]","[5988.91808846, 0.0234, -0.1665, 0.9971, -9.651, -1.335, 165.987]","[5989.018088537, 0.0205, -0.1704, 1.0015, -9.668, -1.335, 165.987]","[5989.118088539, 0.0273, -0.1758, 1.0005, -9.701, -1.335, 165.987]","[5989.21808856, 0.0254, -0.1758, 0.9961, -9.701, -1.34, 165.987]","[5989.318088581, 0.0283, -0.1602, 0.9951, -9.635, -1.357, 165.992]","[5989.418088695, 0.022, -0.1685, 1.0005, -9.63, -1.362, 165.992]","[5989.518088697, 0.0254, -0.1641, 0.9951, -9.624, -1.362, 165.992]","[5989.618088755, 0.0254, -0.1699, 0.9971, -9.63, -1.368, 165.992]","[5989.718088869, 0.0215, -0.1694, 0.9956, -9.613, -1.384, 165.992]","[5989.818088945, 0.0283, -0.1675, 0.9951, -9.591, -1.401, 165.998]","[5989.91808904, 0.0273, -0.1787, 0.9966, -9.619, -1.412, 166.009]"
"[5987.918087732, None, None, None, -9.657, -1.34, 165.987]","[5988.01808779, 0.0239, -0.1694, 0.9966, -9.657, -1.34, 165.987]","[5988.118087885, 0.0225, -0.1699, 0.999, -9.657, -1.34, 165.987]","[5988.218087925, 0.022, -0.1689, 0.998, -9.657, -1.346, 165.987]","[5988.318087983, 0.0229, -0.1709, 0.9976, -9.657, -1.346, 165.987]","[5988.418088078, 0.0264, -0.1709, 0.9941, -9.657, -1.346, 165.987]","[5988.518088117, 0.02, -0.1675, 0.999, -9.657, -1.346, 165.987]","[5988.618088194, 0.0229, -0.1675, 0.9995, -9.657, -1.34, 165.987]","[5988.718088307, 0.0244, -0.1709, 0.9961, -9.662, -1.34, 165.987]","[5988.818088347, 0.0249, -0.1685, 0.9951, -9.662, -1.34, 165.987]","[5988.91808846, 0.0234, -0.1665, 0.9971, -9.651, -1.335, 165.987]","[5989.018088537, 0.0205, -0.1704, 1.0015, -9.668, -1.335, 165.987]","[5989.118088539, 0.0273, -0.1758, 1.0005, -9.701, -1.335, 165.987]","[5989.21808856, 0.0254, -0.1758, 0.9961, -9.701, -1.34, 165.987]","[5989.318088581, 0.0283, -0.1602, 0.9951, -9.635, -1.357, 165.992]","[5989.418088695, 0.022, -0.1685, 1.0005, -9.63, -1.362, 165.992]","[5989.518088697, 0.0254, -0.1641, 0.9951, -9.624, -1.362, 165.992]","[5989.618088755, 0.0254, -0.1699, 0.9971, -9.63, -1.368, 165.992]","[5989.718088869, 0.0215, -0.1694, 0.9956, -9.613, -1.384, 165.992]","[5989.818088945, 0.0283, -0.1675, 0.9951, -9.591, -1.401, 165.998]","[5989.91808904, 0.0273, -0.1787, 0.9966, -9.619, -1.412, 166.009]","[5990.018089098, 0.0264, -0.1602, 0.9927, -9.575, -1.434, 166.025]"
"[5987.918087732, None, None, None, -9.657, -1.34, 165.987]","[5988.01808779, 0.0239, -0.1694, 0.9966, -9.657, -1.34, 165.987]","[5988.118087885, 0.0225, -0.1699, 0.999, -9.657, -1.34, 165.987]","[5988.218087925, 0.022, -0.1689, 0.998, -9.657, -1.346, 165.987]","[5988.318087983, 0.0229, -0.1709, 0.9976, -9.657, -1.346, 165.987]","[5988.418088078, 0.0264, -0.1709, 0.9941, -9.657, -1.346, 165.987]","[5988.518088117, 0.02, -0.1675, 0.999, -9.657, -1.346, 165.987]","[5988.618088194, 0.0229, -0.1675, 0.9995, -9.657, -1.34, 165.987]","[5988.718088307, 0.0244, -0.1709, 0.9961, -9.662, -1.34, 165.987]","[5988.818088347, 0.0249, -0.1685, 0.9951, -9.662, -1.34, 165.987]","[5988.91808846, 0.0234, -0.1665, 0.9971, -9.651, -1.335, 165.987]","[5989.018088537, 0.0205, -0.1704, 1.0015, -9.668, -1.335, 165.987]","[5989.118088539, 0.0273, -0.1758, 1.0005, -9.701, -1.335, 165.987]","[5989.21808856, 0.0254, -0.1758, 0.9961, -9.701, -1.34, 165.987]","[5989.318088581, 0.0283, -0.1602, 0.9951, -9.635, -1.357, 165.992]","[5989.418088695, 0.022, -0.1685, 1.0005, -9.63, -1.362, 165.992]","[5989.518088697, 0.0254, -0.1641, 0.9951, -9.624, -1.362, 165.992]","[5989.618088755, 0.0254, -0.1699, 0.9971, -9.63, -1.368, 165.992]","[5989.718088869, 0.0215, -0.1694, 0.9956, -9.613, -1.384, 165.992]","[5989.818088945, 0.0283, -0.1675, 0.9951, -9.591, -1.401, 165.998]","[5989.91808904, 0.0273, -0.1787, 0.9966, -9.619, -1.412, 166.009]","[5990.018089098, 0.0264, -0.1602, 0.9927, -9.575, -1.434, 166.025]","[5990.118089175, 0.0254, -0.1724, 1.0044, -9.58, -1.439, 166.031]"
"[5987.918087732, None, None, None, -9.657, -1.34, 165.987]","[5988.01808779, 0.0239, -0.1694, 0.9966, -9.657, -1.34, 165.987]","[5988.118087885, 0.0225, -0.1699, 0.999, -9.657, -1.34, 165.987]","[5988.218087925, 0.022, -0.1689, 0.998, -9.657, -1.346, 165.987]","[5988.318087983, 0.0229, -0.1709, 0.9976, -9.657, -1.346, 165.987]","[5988.418088078, 0.0264, -0.1709, 0.9941, -9.657, -1.346, 165.987]","[5988.518088117, 0.02, -0.1675, 0.999, -9.657, -1.346, 165.987]","[5988.618088194, 0.0229, -0.1675, 0.9995, -9.657, -1.34, 165.987]","[5988.718088307, 0.0244, -0.1709, 0.9961, -9.662, -1.34, 165.987]","[5988.818088347, 0.0249, -0.1685, 0.9951, -9.662, -1.34, 165.987]","[5988.91808846, 0.0234, -0.1665, 0.9971, -9.651, -1.335, 165.987]","[5989.018088537, 0.0205, -0.1704, 1.0015, -9.668, -1.335, 165.987]","[5989.118088539, 0.0273, -0.1758, 1.0005, -9.701, -1.335, 165.987]","[5989.21808856, 0.0254, -0.1758, 0.9961, -9.701, -1.34, 165.987]","[5989.318088581, 0.0283, -0.1602, 0.9951, -9.635, -1.357, 165.992]","[5989.418088695, 0.022, -0.1685, 1.0005, -9.63, -1.362, 165.992]","[5989.518088697, 0.0254, -0.1641, 0.9951, -9.624, -1.362, 165.992]","[5989.618088755, 0.0254, -0.1699, 0.9971, -9.63, -1.368, 165.992]","[5989.718088869, 0.0215, -0.1694, 0.9956, -9.613, -1.384, 165.992]","[5989.818088945, 0.0283, -0.1675, 0.9951, -9.591, -1.401, 165.998]","[5989.91808904, 0.0273, -0.1787, 0.9966, -9.619, -1.412, 166.009]","[5990.018089098, 0.0264, -0.1602, 0.9927, -9.575, -1.434, 166.025]","[5990.118089175, 0.0254, -0.1724, 1.0044, -9.58, -1.439, 166.031]","[5990.218089233, 0.0225, -0.1675, 0.9971, -9.575, -1.428, 166.02]"
"[5987.918087732, None, None, None, -9.657, -1.34, 165.987]","[5988.01808779, 0.0239, -0.1694, 0.9966, -9.657, -1.34, 165.987]","[5988.118087885, 0.0225, -0.1699, 0.999, -9.657, -1.34, 165.987]","[5988.218087925, 0.022, -0.1689, 0.998, -9.657, -1.346, 165.987]","[5988.318087983, 0.0229, -0.1709, 0.9976, -9.657, -1.346, 165.987]","[5988.418088078, 0.0264, -0.1709, 0.9941, -9.657, -1.346, 165.987]","[5988.518088117, 0.02, -0.1675, 0.999, -9.657, -1.346, 165.987]","[5988.618088194, 0.0229, -0.1675, 0.9995, -9.657, -1.34, 165.987]","[5988.718088307, 0.0244, -0.1709, 0.9961, -9.662, -1.34, 165.987]","[5988.818088347, 0.0249, -0.1685, 0.9951, -9.662, -1.34, 165.987]","[5988.91808846, 0.0234, -0.1665, 0.9971, -9.651, -1.335, 165.987]","[5989.018088537, 0.0205, -0.1704, 1.0015, -9.668, -1.335, 165.987]","[5989.118088539, 0.0273, -0.1758, 1.0005, -9.701, -1.335, 165.987]","[5989.21808856, 0.0254, -0.1758, 0.9961, -9.701, -1.34, 165.987]","[5989.318088581, 0.0283, -0.1602, 0.9951, -9.635, -1.357, 165.992]","[5989.418088695, 0.022, -0.1685, 1.0005, -9.63, -1.362, 165.992]","[5989.518088697, 0.0254, -0.1641, 0.9951, -9.624, -1.362, 165.992]","[5989.618088755, 0.0254, -0.1699, 0.9971, -9.63, -1.368, 165.992]","[5989.718088869, 0.0215, -0.1694, 0.9956, -9.613, -1.384, 165.992]","[5989.818088945, 0.0283, -0.1675, 0.9951, -9.591, -1.401, 165.998]","[5989.91808904, 0.0273, -0.1787, 0.9966, -9.619, -1.412, 166.009]","[5990.018089098, 0.0264, -0.1602, 0.9927, -9.575, -1.434, 166.025]","[5990.118089175, 0.0254, -0.1724, 1.0044, -9.58, -1.439, 166.031]","[5990.218089233, 0.0225, -0.1675, 0.9971, -9.575, -1.428, 166.02]","[5990.318089272, 0.0244, -0.168, 0.9946, -9.58, -1.428, 166.02]"
"[5987.918087732, None, None, None, -9.657, -1.34, 165.987]","[5988.01808779, 0.0239, -0.1694, 0.9966, -9.657, -1.34, 165.987]","[5988.118087885, 0.0225, -0.1699, 0.999, -9.657, -1.34, 165.987]","[5988.218087925, 0.022, -0.1689, 0.998, -9.657, -1.346, 165.987]","[5988.318087983, 0.0229, -0.1709, 0.9976, -9.657, -1.346, 165.987]","[5988.418088078, 0.0264, -0.1709, 0.9941, -9.657, -1.346, 165.987]","[5988.518088117, 0.02, -0.1675, 0.999, -9.657, -1.346, 165.987]","[5988.618088194, 0.0229, -0.1675, 0.9995, -9.657, -1.34, 165.987]","[5988.718088307, 0.0244, -0.1709, 0.9961, -9.662, -1.34, 165.987]","[5988.818088347, 0.0249, -0.1685, 0.9951, -9.662, -1.34, 165.987]","[5988.91808846, 0.0234, -0.1665, 0.9971, -9.651, -1.335, 165.987]","[5989.018088537, 0.0205, -0.1704, 1.0015, -9.668, -1.335, 165.987]","[5989.118088539, 0.0273, -0.1758, 1.0005, -9.701, -1.335, 165.987]","[5989.21808856, 0.0254, -0.1758, 0.9961, -9.701, -1.34, 165.987]","[5989.318088581, 0.0283, -0.1602, 0.9951, -9.635, -1.357, 165.992]","[5989.418088695, 0.022, -0.1685, 1.0005, -9.63, -1.362, 165.992]","[5989.518088697, 0.0254, -0.1641, 0.9951, -9.624, -1.362, 165.992]","[5989.618088755, 0.0254, -0.1699, 0.9971, -9.63, -1.368, 165.992]","[5989.718088869, 0.0215, -0.1694, 0.9956, -9.613, -1.384, 165.992]","[5989.818088945, 0.0283, -0.1675, 0.9951, -9.591, -1.401, 165.998]","[5989.91808904, 0.0273, -0.1787, 0.9966, -9.619, -1.412, 166.009]","[5990.018089098, 0.0264, -0.1602, 0.9927, -9.575, -1.434, 166.025]","[5990.118089175, 0.0254, -0.1724, 1.0044, -9.58, -1.439, 166.031]","[5990.218089233, 0.0225, -0.1675, 0.9971, -9.575, -1.428, 166.02]","[5990.318089272, 0.0244, -0.168, 0.9946, -9.58, -1.428, 166.02]","[5990.418089293, 0.0254, -0.1675, 0.9961, -9.591, -1.428, 166.02]"
"[5987.918087732, None, None, None, -9.657, -1.34, 165.987]","[5988.01808779, 0.0239, -0.1694, 0.9966, -9.657, -1.34, 165.987]","[5988.118087885, 0.0225, -0.1699, 0.999, -9.657, -1.34, 165.987]","[5988.218087925, 0.022, -0.1689, 0.998, -9.657, -1.346, 165.987]","[5988.318087983, 0.0229, -0.1709, 0.9976, -9.657, -1.346, 165.987]","[5988.418088078, 0.0264, -0.1709, 0.9941, -9.657, -1.346, 165.987]","[5988.518088117, 0.02, -0.1675, 0.999, -9.657, -1.346, 165.987]","[5988.618088194, 0.0229, -0.1675, 0.9995, -9.657, -1.34, 165.987]","[5988.718088307, 0.0244, -0.1709, 0.9961, -9.662, -1.34, 165.987]","[5988.818088347, 0.0249, -0.1685, 0.9951, -9.662, -1.34, 165.987]","[5988.91808846, 0.0234, -0.1665, 0.9971, -9.651, -1.335, 165.987]","[5989.018088537, 0.0205, -0.1704, 1.0015, -9.668, -1.335, 165.987]","[5989.118088539, 0.0273, -0.1758, 1.0005, -9.701, -1.335, 165.987]","[5989.21808856, 0.0254, -0.1758, 0.9961, -9.701, -1.34, 165.987]","[5989.318088581, 0.0283, -0.1602, 0.9951, -9.635, -1.357, 165.992]","[5989.418088695, 0.022, -0.1685, 1.0005, -9.63, -1.362, 165.992]","[5989.518088697, 0.0254, -0.1641, 0.9951, -9.624, -1.362, 165.992]","[5989.618088755, 0.0254, -0.1699, 0.9971, -9.63, -1.368, 165.992]","[5989.718088869, 0.0215, -0.1694, 0.9956, -9.613, -1.384, 165.992]","[5989.818088945, 0.0283, -0.1675, 0.9951, -9.591, -1.401, 165.998]","[5989.91808904, 0.0273, -0.1787, 0.9966, -9.619, -1.412, 166.009]","[5990.018089098, 0.0264, -0.1602, 0.9927, -9.575, -1.434, 166.025]","[5990.118089175, 0.0254, -0.1724, 1.0044, -9.58, -1.439, 166.031]","[5990.218089233, 0.0225, -0.1675, 0.9971, -9.575, -1.428, 166.02]","[5990.318089272, 0.0244, -0.168, 0.9946, -9.58, -1.428, 166.02]","[5990.418089293, 0.0254, -0.1675, 0.9961, -9.591, -1.428, 166.02]","[5990.518089314, 0.0264, -0.1689, 0.9966, -9.602, -1.428, 166.014]"
"[5987.918087732, None, None, None, -9.657, -1.34, 165.987]","[5988.01808779, 0.0239, -0.1694, 0.9966, -9.657, -1.34, 165.987]","[5988.118087885, 0.0225, -0.1699, 0.999, -9.657, -1.34, 165.987]","[5988.218087925, 0.022, -0.1689, 0.998, -9.657, -1.346, 165.987]","[5988.318087983, 0.0229, -0.1709, 0.9976, -9.657, -1.346, 165.987]","[5988.418088078, 0.0264, -0.1709, 0.9941, -9.657, -1.346, 165.987]","[5988.518088117, 0.02, -0.1675, 0.999, -9.657, -1.346, 165.987]","[5988.618088194, 0.0229, -0.1675, 0.9995, -9.657, -1.34, 165.987]","[5988.718088307, 0.0244, -0.1709, 0.9961, -9.662, -1.34, 165.987]","[5988.818088347, 0.0249, -0.1685, 0.9951, -9.662, -1.34, 165.987]","[5988.91808846, 0.0234, -0.1665, 0.9971, -9.651, -1.335, 165.987]","[5989.018088537, 0.0205, -0.1704, 1.0015, -9.668, -1.335, 165.987]","[5989.118088539, 0.0273, -0.1758, 1.0005, -9.701, -1.335, 165.987]","[5989.21808856, 0.0254, -0.1758, 0.9961, -9.701, -1.34, 165.987]","[5989.318088581, 0.0283, -0.1602, 0.9951, -9.635, -1.357, 165.992]","[5989.418088695, 0.022, -0.1685, 1.0005, -9.63, -1.362, 165.992]","[5989.518088697, 0.0254, -0.1641, 0.9951, -9.624, -1.362, 165.992]","[5989.618088755, 0.0254, -0.1699, 0.9971, -9.63, -1.368, 165.992]","[5989.718088869, 0.0215, -0.1694, 0.9956, -9.613, -1.384, 165.992]","[5989.818088945, 0.0283, -0.1675, 0.9951, -9.591, -1.401, 165.998]","[5989.91808904, 0.0273, -0.1787, 0.9966, -9.619, -1.412, 166.009]","[5990.018089098, 0.0264, -0.1602, 0.9927, -9.575, -1.434, 166.025]","[5990.118089175, 0.0254, -0.1724, 1.0044, -9.58, -1.439, 166.031]","[5990.218089233, 0.0225, -0.1675, 0.9971, -9.575, -1.428, 166.02]","[5990.318089272, 0.0244, -0.168, 0.9946, -9.58, -1.428, 166.02]","[5990.418089293, 0.0254, -0.1675, 0.9961, -9.591, -1.428, 166.02]","[5990.518089314, 0.0264, -0.1689, 0.9966, -9.602, -1.428, 166.014]","[5990.618089335, 0.0249, -0.1685, 0.9961, -9.602, -1.428, 166.014]"
"[5987.918087732, None, None, None, -9.657, -1.34, 165.987]","[5988.01808779, 0.0239, -0.1694, 0.9966, -9.657, -1.34, 165.987]","[5988.118087885, 0.0225, -0.1699, 0.999, -9.657, -1.34, 165.987]","[5988.218087925, 0.022, -0.1689, 0.998, -9.657, -1.346, 165.987]","[5988.318087983, 0.0229, -0.1709, 0.9976, -9.657, -1.346, 165.987]","[5988.418088078, 0.0264, -0.1709, 0.9941, -9.657, -1.346, 165.987]","[5988.518088117, 0.02, -0.1675, 0.999, -9.657, -1.346, 165.987]","[5988.618088194, 0.0229, -0.1675, 0.9995, -9.657, -1.34, 165.987]","[5988.718088307, 0.0244, -0.1709, 0.9961, -9.662, -1.34, 165.987]","[5988.818088347, 0.0249, -0.1685, 0.9951, -9.662, -1.34, 165.987]","[5988.91808846, 0.0234, -0.1665, 0.9971, -9.651, -1.335, 165.987]","[5989.018088537, 0.0205, -0.1704, 1.0015, -9.668, -1.335, 165.987]","[5989.118088539, 0.0273, -0.1758, 1.0005, -9.701, -1.335, 165.987]","[5989.21808856, 0.0254, -0.1758, 0.9961, -9.701, -1.34, 165.987]","[5989.318088581, 0.0283, -0.1602, 0.9951, -9.635, -1.357, 165.992]","[5989.418088695, 0.022, -0.1685, 1.0005, -9.63, -1.362, 165.992]","[5989.518088697, 0.0254, -0.1641, 0.9951, -9.624, -1.362, 165.992]","[5989.618088755, 0.0254, -0.1699, 0.9971, -9.63, -1.368, 165.992]","[5989.718088869, 0.0215, -0.1694, 0.9956, -9.613, -1.384, 165.992]","[5989.818088945, 0.0283, -0.1675, 0.9951, -9.591, -1.401, 165.998]","[5989.91808904, 0.0273, -0.1787, 0.9966, -9.619, -1.412, 166.009]","[5990.018089098, 0.0264, -0.1602, 0.9927, -9.575, -1.434, 166.025]","[5990.118089175, 0.0254, -0.1724, 1.0044, -9.58, -1.439, 166.031]","[5990.218089233, 0.0225, -0.1675, 0.9971, -9.575, -1.428, 166.02]","[5990.318089272, 0.0244, -0.168, 0.9946, -9.58, -1.428, 166.02]","[5990.418089293, 0.0254, -0.1675, 0.9961, -9.591, -1.428, 166.02]","[5990.518089314, 0.0264, -0.1689, 0.9966, -9.602, -1.428, 166.014]","[5990.618089335, 0.0249, -0.1685, 0.9961, -9.602, -1.428, 166.014]","[5990.718089411, 0.0254, -0.1704, 0.9976, -9.608, -1.428, 166.014]"
"[5987.918087732, None, None, None, -9.657, -1.34, 165.987]","[5988.01808779, 0.0239, -0.1694, 0.9966, -9.657, -1.34, 165.987]","[5988.118087885, 0.0225, -0.1699, 0.999, -9.657, -1.34, 165.987]","[5988.218087925, 0.022, -0.1689, 0.998, -9.657, -1.346, 165.987]","[5988.318087983, 0.0229, -0.1709, 0.9976, -9.657, -1.346, 165.987]","[5988.418088078, 0.0264, -0.1709, 0.9941, -9.657, -1.346, 165.987]","[5988.518088117, 0.02, -0.1675, 0.999, -9.657, -1.346, 165.987]","[5988.618088194, 0.0229, -0.1675, 0.9995, -9.657, -1.34, 165.987]","[5988.718088307, 0.0244, -0.1709, 0.9961, -9.662, -1.34, 165.987]","[5988.818088347, 0.0249, -0.1685, 0.9951, -9.662, -1.34, 165.987]","[5988.91808846, 0.0234, -0.1665, 0.9971, -9.651, -1.335, 165.987]","[5989.018088537, 0.0205, -0.1704, 1.0015, -9.668, -1.335, 165.987]","[5989.118088539, 0.0273, -0.1758, 1.0005, -9.701, -1.335, 165.987]","[5989.21808856, 0.0254, -0.1758, 0.9961, -9.701, -1.34, 165.987]","[5989.318088581, 0.0283, -0.1602, 0.9951, -9.635, -1.357, 165.992]","[5989.418088695, 0.022, -0.1685, 1.0005, -9.63, -1.362, 165.992]","[5989.518088697, 0.0254, -0.1641, 0.9951, -9.624, -1.362, 165.992]","[5989.618088755, 0.0254, -0.1699, 0.9971, -9.63, -1.368, 165.992]","[5989.718088869, 0.0215, -0.1694, 0.9956, -9.613, -1.384, 165.992]","[5989.818088945, 0.0283, -0.1675, 0.9951, -9.591, -1.401, 165.998]","[5989.91808904, 0.0273, -0.1787, 0.9966, -9.619, -1.412, 166.009]","[5990.018089098, 0.0264, -0.1602, 0.9927, -9.575, -1.434, 166.025]","[5990.118089175, 0.0254, -0.1724, 1.0044, -9.58, -1.439, 166.031]","[5990.218089233, 0.0225, -0.1675, 0.9971, -9.575, -1.428, 166.02]","[5990.318089272, 0.0244, -0.168, 0.9946, -9.58, -1.428, 166.02]","[5990.418089293, 0.0254, -0.1675, 0.9961, -9.591, -1.428, 166.02]","[5990.518089314, 0.0264, -0.1689, 0.9966, -9.602, -1.428, 166.014]","[5990.618089335, 0.0249, -0.1685, 0.9961, -9.602, -1.428, 166.014]","[5990.718089411, 0.0254, -0.1704, 0.9976, -9.608, -1.428, 166.014]","[5990.818089488, 0.0244, -0.168, 0.9971, -9.608, -1.434, 166.014]"
"[5987.918087732, None, None, None, -9.657, -1.34, 165.987]","[5988.01808779, 0.0239, -0.1694, 0.9966, -9.657, -1.34, 165.987]","[5988.118087885, 0.0225, -0.1699, 0.999, -9.657, -1.34, 165.987]","[5988.218087925, 0.022, -0.1689, 0.998, -9.657, -1.346, 165.987]","[5988.318087983, 0.0229, -0.1709, 0.9976, -9.657, -1.346, 165.987]","[5988.418088078, 0.0264, -0.1709, 0.9941, -9.657, -1.346, 165.987]","[5988.518088117, 0.02, -0.1675, 0.999, -9.657, -1.346, 165.987]","[5988.618088194, 0.0229, -0.1675, 0.9995, -9.657, -1.34, 165.987]","[5988.718088307, 0.0244, -0.1709, 0.9961, -9.662, -1.34, 165.987]","[5988.818088347, 0.0249, -0.1685, 0.9951, -9.662, -1.34, 165.987]","[5988.91808846, 0.0234, -0.1665, 0.9971, -9.651, -1.335, 165.987]","[5989.018088537, 0.0205, -0.1704, 1.0015, -9.668, -1.335, 165.987]","[5989.118088539, 0.0273, -0.1758, 1.0005, -9.701, -1.335, 165.987]","[5989.21808856, 0.0254, -0.1758, 0.9961, -9.701, -1.34, 165.987]","[5989.318088581, 0.0283, -0.1602, 0.9951, -9.635, -1.357, 165.992]","[5989.418088695, 0.022, -0.1685, 1.0005, -9.63, -1.362, 165.992]","[5989.518088697, 0.0254, -0.1641, 0.9951, -9.624, -1.362, 165.992]","[5989.618088755, 0.0254, -0.1699, 0.9971, -9.63, -1.368, 165.992]","[5989.718088869, 0.0215, -0.1694, 0.9956, -9.613, -1.384, 165.992]","[5989.818088945, 0.0283, -0.1675, 0.9951, -9.591, -1.401, 165.998]","[5989.91808904, 0.0273, -0.1787, 0.9966, -9.619, -1.412, 166.009]","[5990.018089098, 0.0264, -0.1602, 0.9927, -9.575, -1.434, 166.025]","[5990.118089175, 0.0254, -0.1724, 1.0044, -9.58, -1.439, 166.031]","[5990.218089233, 0.0225, -0.1675, 0.9971, -9.575, -1.428, 166.02]","[5990.318089272, 0.0244, -0.168, 0.9946, -9.58, -1.428, 166.02]","[5990.418089293, 0.0254, -0.1675, 0.9961, -9.591, -1.428, 166.02]","[5990.518089314, 0.0264, -0.1689, 0.9966, -9.602, -1.428, 166.014]","[5990.618089335, 0.0249, -0.1685, 0.9961, -9.602, -1.428, 166.014]","[5990.718089411, 0.0254, -0.1704, 0.9976, -9.608, -1.428, 166.014]","[5990.818089488, 0.0244, -0.168, 0.9971, -9.608, -1.434, 166.014]","[5990.91808949, 0.0254, -0.1685, 0.9971, -9.624, -1.434, 166.014]"
"[5987.918087732, None, None, None, -9.657, -1.34, 165.987]","[5988.01808779, 0.0239, -0.1694, 0.9966, -9.657, -1.34, 165.987]","[5988.118087885, 0.0225, -0.1699, 0.999, -9.657, -1.34, 165.987]","[5988.218087925, 0.022, -0.1689, 0.998, -9.657, -1.346, 165.987]","[5988.318087983, 0.0229, -0.1709, 0.9976, -9.657, -1.346, 165.987]","[5988.418088078, 0.0264, -0.1709, 0.9941, -9.657, -1.346, 165.987]","[5988.518088117, 0.02, -0.1675, 0.999, -9.657, -1.346, 165.987]","[5988.618088194, 0.0229, -0.1675, 0.9995, -9.657, -1.34, 165.987]","[5988.718088307, 0.0244, -0.1709, 0.9961, -9.662, -1.34, 165.987]","[5988.818088347, 0.0249, -0.1685, 0.9951, -9.662, -1.34, 165.987]","[5988.91808846, 0.0234, -0.1665, 0.9971, -9.651, -1.335, 165.987]","[5989.018088537, 0.0205, -0.1704, 1.0015, -9.668, -1.335, 165.987]","[5989.118088539, 0.0273, -0.1758, 1.0005, -9.701, -1.335, 165.987]","[5989.21808856, 0.0254, -0.1758, 0.9961, -9.701, -1.34, 165.987]","[5989.318088581, 0.0283, -0.1602, 0.9951, -9.635, -1.357, 165.992]","[5989.418088695, 0.022, -0.1685, 1.0005, -9.63, -1.362, 165.992]","[5989.518088697, 0.0254, -0.1641, 0.9951, -9.624, -1.362, 165.992]","[5989.618088755, 0.0254, -0.1699, 0.9971, -9.63, -1.368, 165.992]","[5989.718088869, 0.0215, -0.1694, 0.9956, -9.613, -1.384, 165.992]","[5989.818088945, 0.0283, -0.1675, 0.9951, -9.591, -1.401, 165.998]","[5989.91808904, 0.0273, -0.1787, 0.9966, -9.619, -1.412, 166.009]","[5990.018089098, 0.0264, -0.1602, 0.9927, -9.575, -1.434, 166.025]","[5990.118089175, 0.0254, -0.1724, 1.0044, -9.58, -1.439, 166.031]","[5990.218089233, 0.0225, -0.1675, 0.9971, -9.575, -1.428, 166.02]","[5990.318089272, 0.0244, -0.168, 0.9946, -9.58, -1.428, 166.02]","[5990.418089293, 0.0254, -0.1675, 0.9961, -9.591, -1.428, 166.02]","[5990.518089314, 0.0264, -0.1689, 0.9966, -9.602, -1.428, 166.014]","[5990.618089335, 0.0249, -0.1685, 0.9961, -9.602, -1.428, 166.014]","[5990.718089411, 0.0254, -0.1704, 0.9976, -9.608, -1.428, 166.014]","[5990.818089488, 0.0244, -0.168, 0.9971, -9.608, -1.434, 166.014]","[5990.91808949, 0.0254, -0.1685, 0.9971, -9.624, -1.434, 166.014]","[5991.018089511, 0.0283, -0.1694, 0.9951, -9.63, -1.434, 166.014]"
"[5987.918087732, None, None, None, -9.657, -1.34, 165.987]","[5988.01808779, 0.0239, -0.1694, 0.9966, -9.657, -1.34, 165.987]","[5988.118087885, 0.0225, -0.1699, 0.999, -9.657, -1.34, 165.987]","[5988.218087925, 0.022, -0.1689, 0.998, -9.657, -1.346, 165.987]","[5988.318087983, 0.0229, -0.1709, 0.9976, -9.657, -1.346, 165.987]","[5988.418088078, 0.0264, -0.1709, 0.9941, -9.657, -1.346, 165.987]","[5988.518088117, 0.02, -0.1675, 0.999, -9.657, -1.346, 165.987]","[5988.618088194, 0.0229, -0.1675, 0.9995, -9.657, -1.34, 165.987]","[5988.718088307, 0.0244, -0.1709, 0.9961, -9.662, -1.34, 165.987]","[5988.818088347, 0.0249, -0.1685, 0.9951, -9.662, -1.34, 165.987]","[5988.91808846, 0.0234, -0.1665, 0.9971, -9.651, -1.335, 165.987]","[5989.018088537, 0.0205, -0.1704, 1.0015, -9.668, -1.335, 165.987]","[5989.118088539, 0.0273, -0.1758, 1.0005, -9.701, -1.335, 165.987]","[5989.21808856, 0.0254, -0.1758, 0.9961, -9.701, -1.34, 165.987]","[5989.318088581, 0.0283, -0.1602, 0.9951, -9.635, -1.357, 165.992]","[5989.418088695, 0.022, -0.1685, 1.0005, -9.63, -1.362, 165.992]","[5989.518088697, 0.0254, -0.1641, 0.9951, -9.624, -1.362, 165.992]","[5989.618088755, 0.0254, -0.1699, 0.9971, -9.63, -1.368, 165.992]","[5989.718088869, 0.0215, -0.1694, 0.9956, -9.613, -1.384, 165.992]","[5989.818088945, 0.0283, -0.1675, 0.9951, -9.591, -1.401, 165.998]","[5989.91808904, 0.0273, -0.1787, 0.9966, -9.619, -1.412, 166.009]","[5990.018089098, 0.0264, -0.1602, 0.9927, -9.575, -1.434, 166.025]","[5990.118089175, 0.0254, -0.1724, 1.0044, -9.58, -1.439, 166.031]","[5990.218089233, 0.0225, -0.1675, 0.9971, -9.575, -1.428, 166.02]","[5990.318089272, 0.0244, -0.168, 0.9946, -9.58, -1.428, 166.02]","[5990.418089293, 0.0254, -0.1675, 0.9961, -9.591, -1.428, 166.02]","[5990.518089314, 0.0264, -0.1689, 0.9966, -9.602, -1.428, 166.014]","[5990.618089335, 0.0249, -0.1685, 0.9961, -9.602, -1.428, 166.014]","[5990.718089411, 0.0254, -0.1704, 0.9976, -9.608, -1.428, 166.014]","[5990.818089488, 0.0244, -0.168, 0.9971, -9.608, -1.434, 166.014]","[5990.91808949, 0.0254, -0.1685, 0.9971, -9.624, -1.434, 166.014]","[5991.018089511, 0.0283, -0.1694, 0.9951, -9.63, -1.434, 166.014]","[5991.118089588, 0.0234, -0.168, 0.998, -9.641, -1.434, 166.014]"
"[5987.918087732, None, None, None, -9.657, -1.34, 165.987]","[5988.01808779, 0.0239, -0.1694, 0.9966, -9.657, -1.34, 165.987]","[5988.118087885, 0.0225, -0.1699, 0.999, -9.657, -1.34, 165.987]","[5988.218087925, 0.022, -0.1689, 0.998, -9.657, -1.346, 165.987]","[5988.318087983, 0.0229, -0.1709, 0.9976, -9.657, -1.346, 165.987]","[5988.418088078, 0.0264, -0.1709, 0.9941, -9.657, -1.346, 165.987]","[5988.518088117, 0.02, -0.1675, 0.999, -9.657, -1.346, 165.987]","[5988.618088194, 0.0229, -0.1675, 0.9995, -9.657, -1.34, 165.987]","[5988.718088307, 0.0244, -0.1709, 0.9961, -9.662, -1.34, 165.987]","[5988.818088347, 0.0249, -0.1685, 0.9951, -9.662, -1.34, 165.987]","[5988.91808846, 0.0234, -0.1665, 0.9971, -9.651, -1.335, 165.987]","[5989.018088537, 0.0205, -0.1704, 1.0015, -9.668, -1.335, 165.987]","[5989.118088539, 0.0273, -0.1758, 1.0005, -9.701, -1.335, 165.987]","[5989.21808856, 0.0254, -0.1758, 0.9961, -9.701, -1.34, 165.987]","[5989.318088581, 0.0283, -0.1602, 0.9951, -9.635, -1.357, 165.992]","[5989.418088695, 0.022, -0.1685, 1.0005, -9.63, -1.362, 165.992]","[5989.518088697, 0.0254, -0.1641, 0.9951, -9.624, -1.362, 165.992]","[5989.618088755, 0.0254, -0.1699, 0.9971, -9.63, -1.368, 165.992]","[5989.718088869, 0.0215, -0.1694, 0.9956, -9.613, -1.384, 165.992]","[5989.818088945, 0.0283, -0.1675, 0.9951, -9.591, -1.401, 165.998]","[5989.91808904, 0.0273, -0.1787, 0.9966, -9.619, -1.412, 166.009]","[5990.018089098, 0.0264, -0.1602, 0.9927, -9.575, -1.434, 166.025]","[5990.118089175, 0.0254, -0.1724, 1.0044, -9.58, -1.439, 166.031]","[5990.218089233, 0.0225, -0.1675, 0.9971, -9.575, -1.428, 166.02]","[5990.318089272, 0.0244, -0.168, 0.9946, -9.58, -1.428, 166.02]","[5990.418089293, 0.0254, -0.1675, 0.9961, -9.591, -1.428, 166.02]","[5990.518089314, 0.0264, -0.1689, 0.9966, -9.602, -1.428, 166.014]","[5990.618089335, 0.0249, -0.1685, 0.9961, -9.602, -1.428, 166.014]","[5990.718089411, 0.0254, -0.1704, 0.9976, -9.608, -1.428, 166.014]","[5990.818089488, 0.0244, -0.168, 0.9971, -9.608, -1.434, 166.014]","[5990.91808949, 0.0254, -0.1685, 0.9971, -9.624, -1.434, 166.014]","[5991.018089511, 0.0283, -0.1694, 0.9951, -9.63, -1.434, 166.014]","[5991.118089588, 0.0234, -0.168, 0.998, -9.641, -1.434, 166.014]","[5991.218089609, 0.0254, -0.1694, 0.9971, -9.641, -1.439, 166.014]"
"[5987.918087732, None, None, None, -9.657, -1.34, 165.987]","[5988.01808779, 0.0239, -0.1694, 0.9966, -9.657, -1.34, 165.987]","[5988.118087885, 0.0225, -0.1699, 0.999, -9.657, -1.34, 165.987]","[5988.218087925, 0.022, -0.1689, 0.998, -9.657, -1.346, 165.987]","[5988.318087983, 0.0229, -0.1709, 0.9976, -9.657, -1.346, 165.987]","[5988.418088078, 0.0264, -0.1709, 0.9941, -9.657, -1.346, 165.987]","[5988.518088117, 0.02, -0.1675, 0.999, -9.657, -1.346, 165.987]","[5988.618088194, 0.0229, -0.1675, 0.9995, -9.657, -1.34, 165.987]","[5988.718088307, 0.0244, -0.1709, 0.9961, -9.662, -1.34, 165.987]","[5988.818088347, 0.0249, -0.1685, 0.9951, -9.662, -1.34, 165.987]","[5988.91808846, 0.0234, -0.1665, 0.9971, -9.651, -1.335, 165.987]","[5989.018088537, 0.0205, -0.1704, 1.0015, -9.668, -1.335, 165.987]","[5989.118088539, 0.0273, -0.1758, 1.0005, -9.701, -1.335, 165.987]","[5989.21808856, 0.0254, -0.1758, 0.9961, -9.701, -1.34, 165.987]","[5989.318088581, 0.0283, -0.1602, 0.9951, -9.635, -1.357, 165.992]","[5989.418088695, 0.022, -0.1685, 1.0005, -9.63, -1.362, 165.992]","[5989.518088697, 0.0254, -0.1641, 0.9951, -9.624, -1.362, 165.992]","[5989.618088755, 0.0254, -0.1699, 0.9971, -9.63, -1.368, 165.992]","[5989.718088869, 0.0215, -0.1694, 0.9956, -9.613, -1.384, 165.992]","[5989.818088945, 0.0283, -0.1675, 0.9951, -9.591, -1.401, 165.998]","[5989.91808904, 0.0273, -0.1787, 0.9966, -9.619, -1.412, 166.009]","[5990.018089098, 0.0264, -0.1602, 0.9927, -9.575, -1.434, 166.025]","[5990.118089175, 0.0254, -0.1724, 1.0044, -9.58, -1.439, 166.031]","[5990.218089233, 0.0225, -0.1675, 0.9971, -9.575, -1.428, 166.02]","[5990.318089272, 0.0244, -0.168, 0.9946, -9.58, -1.428, 166.02]","[5990.418089293, 0.0254, -0.1675, 0.9961, -9.591, -1.428, 166.02]","[5990.518089314, 0.0264, -0.1689, 0.9966, -9.602, -1.428, 166.014]","[5990.618089335, 0.0249, -0.1685, 0.9961, -9.602, -1.428, 166.014]","[5990.718089411, 0.0254, -0.1704, 0.9976, -9.608, -1.428, 166.014]","[5990.818089488, 0.0244, -0.168, 0.9971, -9.608, -1.434, 166.014]","[5990.91808949, 0.0254, -0.1685, 0.9971, -9.624, -1.434, 166.014]","[5991.018089511, 0.0283, -0.1694, 0.9951, -9.63, -1.434, 166.014]","[5991.118089588, 0.0234, -0.168, 0.998, -9.641, -1.434, 166.014]","[5991.218089609, 0.0254, -0.1694, 0.9971, -9.641, -1.439, 166.014]","[5991.318089611, 0.0259, -0.1655, 0.9937, -9.641, -1.434, 166.014]"
"[5987.918087732, None, None, None, -9.657, -1.34, 165.987]","[5988.01808779, 0.0239, -0.1694, 0.9966, -9.657, -1.34, 165.987]","[5988.118087885, 0.0225, -0.1699, 0.999, -9.657, -1.34, 165.987]","[5988.218087925, 0.022, -0.1689, 0.998, -9.657, -1.346, 165.987]","[5988.318087983, 0.0229, -0.1709, 0.9976, -9.657, -1.346, 165.987]","[5988.418088078, 0.0264, -0.1709, 0.9941, -9.657, -1.346, 165.987]","[5988.518088117, 0.02, -0.1675, 0.999, -9.657, -1.346, 165.987]","[5988.618088194, 0.0229, -0.1675, 0.9995, -9.657, -1.34, 165.987]","[5988.718088307, 0.0244, -0.1709, 0.9961, -9.662, -1.34, 165.987]","[5988.818088347, 0.0249, -0.1685, 0.9951, -9.662, -1.34, 165.987]","[5988.91808846, 0.0234, -0.1665, 0.9971, -9.651, -1.335, 165.987]","[5989.018088537, 0.0205, -0.1704, 1.0015, -9.668, -1.335, 165.987]","[5989.118088539, 0.0273, -0.1758, 1.0005, -9.701, -1.335, 165.987]","[5989.21808856, 0.0254, -0.1758, 0.9961, -9.701, -1.34, 165.987]","[5989.318088581, 0.0283, -0.1602, 0.9951, -9.635, -1.357, 165.992]","[5989.418088695, 0.022, -0.1685, 1.0005, -9.63, -1.362, 165.992]","[5989.518088697, 0.0254, -0.1641, 0.9951, -9.624, -1.362, 165.992]","[5989.618088755, 0.0254, -0.1699, 0.9971, -9.63, -1.368, 165.992]","[5989.718088869, 0.0215, -0.1694, 0.9956, -9.613, -1.384, 165.992]","[5989.818088945, 0.0283, -0.1675, 0.9951, -9.591, -1.401, 165.998]","[5989.91808904, 0.0273, -0.1787, 0.9966, -9.619, -1.412, 166.009]","[5990.018089098, 0.0264, -0.1602, 0.9927, -9.575, -1.434, 166.025]","[5990.118089175, 0.0254, -0.1724, 1.0044, -9.58, -1.439, 166.031]","[5990.218089233, 0.0225, -0.1675, 0.9971, -9.575, -1.428, 166.02]","[5990.318089272, 0.0244, -0.168, 0.9946, -9.58, -1.428, 166.02]","[5990.418089293, 0.0254, -0.1675, 0.9961, -9.591, -1.428, 166.02]","[5990.518089314, 0.0264, -0.1689, 0.9966, -9.602, -1.428, 166.014]","[5990.618089335, 0.0249, -0.1685, 0.9961, -9.602, -1.428, 166.014]","[5990.718089411, 0.0254, -0.1704, 0.9976, -9.608, -1.428, 166.014]","[5990.818089488, 0.0244, -0.168, 0.9971, -9.608, -1.434, 166.014]","[5990.91808949, 0.0254, -0.1685, 0.9971, -9.624, -1.434, 166.014]","[5991.018089511, 0.0283, -0.1694, 0.9951, -9.63, -1.434, 166.014]","[5991.118089588, 0.0234, -0.168, 0.998, -9.641, -1.434, 166.014]","[5991.218089609, 0.0254, -0.1694, 0.9971, -9.641, -1.439, 166.014]","[5991.318089611, 0.0259, -0.1655, 0.9937, -9.641, -1.434, 166.014]","[5991.418089613, 0.0254, -0.1694, 0.9961, -9.651, -1.434, 166.014]"
"[5987.918087732, None, None, None, -9.657, -1.34, 165.987]","[5988.01808779, 0.0239, -0.1694, 0.9966, -9.657, -1.34, 165.987]","[5988.118087885, 0.0225, -0.1699, 0.999, -9.657, -1.34, 165.987]","[5988.218087925, 0.022, -0.1689, 0.998, -9.657, -1.346, 165.987]","[5988.318087983, 0.0229, -0.1709, 0.9976, -9.657, -1.346, 165.987]","[5988.418088078, 0.0264, -0.1709, 0.9941, -9.657, -1.346, 165.987]","[5988.518088117, 0.02, -0.1675, 0.999, -9.657, -1.346, 165.987]","[5988.618088194, 0.0229, -0.1675, 0.9995, -9.657, -1.34, 165.987]","[5988.718088307, 0.0244, -0.1709, 0.9961, -9.662, -1.34, 165.987]","[5988.818088347, 0.0249, -0.1685, 0.9951, -9.662, -1.34, 165.987]","[5988.91808846, 0.0234, -0.1665, 0.9971, -9.651, -1.335, 165.987]","[5989.018088537, 0.0205, -0.1704, 1.0015, -9.668, -1.335, 165.987]","[5989.118088539, 0.0273, -0.1758, 1.0005, -9.701, -1.335, 165.987]","[5989.21808856, 0.0254, -0.1758, 0.9961, -9.701, -1.34, 165.987]","[5989.318088581, 0.0283, -0.1602, 0.9951, -9.635, -1.357, 165.992]","[5989.418088695, 0.022, -0.1685, 1.0005, -9.63, -1.362, 165.992]","[5989.518088697, 0.0254, -0.1641, 0.9951, -9.624, -1.362, 165.992]","[5989.618088755, 0.0254, -0.1699, 0.9971, -9.63, -1.368, 165.992]","[5989.718088869, 0.0215, -0.1694, 0.9956, -9.613, -1.384, 165.992]","[5989.818088945, 0.0283, -0.1675, 0.9951, -9.591, -1.401, 165.998]","[5989.91808904, 0.0273, -0.1787, 0.9966, -9.619, -1.412, 166.009]","[5990.018089098, 0.0264, -0.1602, 0.9927, -9.575, -1.434, 166.025]","[5990.118089175, 0.0254, -0.1724, 1.0044, -9.58, -1.439, 166.031]","[5990.218089233, 0.0225, -0.1675, 0.9971, -9.575, -1.428, 166.02]","[5990.318089272, 0.0244, -0.168, 0.9946, -9.58, -1.428, 166.02]","[5990.418089293, 0.0254, -0.1675, 0.9961, -9.591, -1.428, 166.02]","[5990.518089314, 0.0264, -0.1689, 0.9966, -9.602, -1.428, 166.014]","[5990.618089335, 0.0249, -0.1685, 0.9961, -9.602, -1.428, 166.014]","[5990.718089411, 0.0254, -0.1704, 0.9976, -9.608, -1.428, 166.014]","[5990.818089488, 0.0244, -0.168, 0.9971, -9.608, -1.434, 166.014]","[5990.91808949, 0.0254, -0.1685, 0.9971, -9.624, -1.434, 166.014]","[5991.018089511, 0.0283, -0.1694, 0.9951, -9.63, -1.434, 166.014]","[5991.118089588, 0.0234, -0.168, 0.998, -9.641, -1.434, 166.014]","[5991.218089609, 0.0254, -0.1694, 0.9971, -9.641, -1.439, 166.014]","[5991.318089611, 0.0259, -0.1655, 0.9937, -9.641, -1.434, 166.014]","[5991.418089613, 0.0254, -0.1694, 0.9961, -9.651, -1.434, 166.014]","[5991.51808969, 0.0278, -0.1665, 0.9961, -9.651, -1.434, 166.014]"
"[5987.918087732, None, None, None, -9.657, -1.34, 165.987]","[5988.01808779, 0.0239, -0.1694, 0.9966, -9.657, -1.34, 165.987]","[5988.118087885, 0.0225, -0.1699, 0.999, -9.657, -1.34, 165.987]","[5988.218087925, 0.022, -0.1689, 0.998, -9.657, -1.346, 165.987]","[5988.318087983, 0.0229, -0.1709, 0.9976, -9.657, -1.346, 165.987]","[5988.418088078, 0.0264, -0.1709, 0.9941, -9.657, -1.346, 165.987]","[5988.518088117, 0.02, -0.1675, 0.999, -9.657, -1.346, 165.987]","[5988.618088194, 0.0229, -0.1675, 0.9995, -9.657, -1.34, 165.987]","[5988.718088307, 0.0244, -0.1709, 0.9961, -9.662, -1.34, 165.987]","[5988.818088347, 0.0249, -0.1685, 0.9951, -9.662, -1.34, 165.987]","[5988.91808846, 0.0234, -0.1665, 0.9971, -9.651, -1.335, 165.987]","[5989.018088537, 0.0205, -0.1704, 1.0015, -9.668, -1.335, 165.987]","[5989.118088539, 0.0273, -0.1758, 1.0005, -9.701, -1.335, 165.987]","[5989.21808856, 0.0254, -0.1758, 0.9961, -9.701, -1.34, 165.987]","[5989.318088581, 0.0283, -0.1602, 0.9951, -9.635, -1.357, 165.992]","[5989.418088695, 0.022, -0.1685, 1.0005, -9.63, -1.362, 165.992]","[5989.518088697, 0.0254, -0.1641, 0.9951, -9.624, -1.362, 165.992]","[5989.618088755, 0.0254, -0.1699, 0.9971, -9.63, -1.368, 165.992]","[5989.718088869, 0.0215, -0.1694, 0.9956, -9.613, -1.384, 165.992]","[5989.818088945, 0.0283, -0.1675, 0.9951, -9.591, -1.401, 165.998]","[5989.91808904, 0.0273, -0.1787, 0.9966, -9.619, -1.412, 166.009]","[5990.018089098, 0.0264, -0.1602, 0.9927, -9.575, -1.434, 166.025]","[5990.118089175, 0.0254, -0.1724, 1.0044, -9.58, -1.439, 166.031]","[5990.218089233, 0.0225, -0.1675, 0.9971, -9.575, -1.428, 166.02]","[5990.318089272, 0.0244, -0.168, 0.9946, -9.58, -1.428, 166.02]","[5990.418089293, 0.0254, -0.1675, 0.9961, -9.591, -1.428, 166.02]","[5990.518089314, 0.0264, -0.1689, 0.9966, -9.602, -1.428, 166.014]","[5990.618089335, 0.0249, -0.1685, 0.9961, -9.602, -1.428, 166.014]","[5990.718089411, 0.0254, -0.1704, 0.9976, -9.608, -1.428, 166.014]","[5990.818089488, 0.0244, -0.168, 0.9971, -9.608, -1.434, 166.014]","[5990.91808949, 0.0254, -0.1685, 0.9971, -9.624, -1.434, 166.014]","[5991.018089511, 0.0283, -0.1694, 0.9951, -9.63, -1.434, 166.014]","[5991.118089588, 0.0234, -0.168, 0.998, -9.641, -1.434, 166.014]","[5991.218089609, 0.0254, -0.1694, 0.9971, -9.641, -1.439, 166.014]","[5991.318089611, 0.0259, -0.1655, 0.9937, -9.641, -1.434, 166.014]","[5991.418089613, 0.0254, -0.1694, 0.9961, -9.651, -1.434, 166.014]","[5991.51808969, 0.0278, -0.1665, 0.9961, -9.651, -1.434, 166.014]","[5991.618089766, 0.0239, -0.168, 0.999, -9.651, -1.434, 166.014]"
"[5987.918087732, None, None, None, -9.657, -1.34, 165.987]","[5988.01808779, 0.0239, -0.1694, 0.9966, -9.657, -1.34, 165.987]","[5988.118087885, 0.0225, -0.1699, 0.999, -9.657, -1.34, 165.987]","[5988.218087925, 0.022, -0.1689, 0.998, -9.657, -1.346, 165.987]","[5988.318087983, 0.0229, -0.1709, 0.9976, -9.657, -1.346, 165.987]","[5988.418088078, 0.0264, -0.1709, 0.9941, -9.657, -1.346, 165.987]","[5988.518088117, 0.02, -0.1675, 0.999, -9.657, -1.346, 165.987]","[5988.618088194, 0.0229, -0.1675, 0.9995, -9.657, -1.34, 165.987]","[5988.718088307, 0.0244, -0.1709, 0.9961, -9.662, -1.34, 165.987]","[5988.818088347, 0.0249, -0.1685, 0.9951, -9.662, -1.34, 165.987]","[5988.91808846, 0.0234, -0.1665, 0.9971, -9.651, -1.335, 165.987]","[5989.018088537, 0.0205, -0.1704, 1.0015, -9.668, -1.335, 165.987]","[5989.118088539, 0.0273, -0.1758, 1.0005, -9.701, -1.335, 165.987]","[5989.21808856, 0.0254, -0.1758, 0.9961, -9.701, -1.34, 165.987]","[5989.318088581, 0.0283, -0.1602, 0.9951, -9.635, -1.357, 165.992]","[5989.418088695, 0.022, -0.1685, 1.0005, -9.63, -1.362, 165.992]","[5989.518088697, 0.0254, -0.1641, 0.9951, -9.624, -1.362, 165.992]","[5989.618088755, 0.0254, -0.1699, 0.9971, -9.63, -1.368, 165.992]","[5989.718088869, 0.0215, -0.1694, 0.9956, -9.613, -1.384, 165.992]","[5989.818088945, 0.0283, -0.1675, 0.9951, -9.591, -1.401, 165.998]","[5989.91808904, 0.0273, -0.1787, 0.9966, -9.619, -1.412, 166.009]","[5990.018089098, 0.0264, -0.1602, 0.9927, -9.575, -1.434, 166.025]","[5990.118089175, 0.0254, -0.1724, 1.0044, -9.58, -1.439, 166.031]","[5990.218089233, 0.0225, -0.1675, 0.9971, -9.575, -1.428, 166.02]","[5990.318089272, 0.0244, -0.168, 0.9946, -9.58, -1.428, 166.02]","[5990.418089293, 0.0254, -0.1675, 0.9961, -9.591, -1.428, 166.02]","[5990.518089314, 0.0264, -0.1689, 0.9966, -9.602, -1.428, 166.014]","[5990.618089335, 0.0249, -0.1685, 0.9961, -9.602, -1.428, 166.014]","[5990.718089411, 0.0254, -0.1704, 0.9976, -9.608, -1.428, 166.014]","[5990.818089488, 0.0244, -0.168, 0.9971, -9.608, -1.434, 166.014]","[5990.91808949, 0.0254, -0.1685, 0.9971, -9.624, -1.434, 166.014]","[5991.018089511, 0.0283, -0.1694, 0.9951, -9.63, -1.434, 166.014]","[5991.118089588, 0.0234, -0.168, 0.998, -9.641, -1.434, 166.014]","[5991.218089609, 0.0254, -0.1694, 0.9971, -9.641, -1.439, 166.014]","[5991.318089611, 0.0259, -0.1655, 0.9937, -9.641, -1.434, 166.014]","[5991.418089613, 0.0254, -0.1694, 0.9961, -9.651, -1.434, 166.014]","[5991.51808969, 0.0278, -0.1665, 0.9961, -9.651, -1.434, 166.014]","[5991.618089766, 0.0239, -0.168, 0.999, -9.651, -1.434, 166.014]","[5991.718089824, 0.022, -0.1709, 0.9995, -9.657, -1.439, 166.014]"
"[5987.918087732, None, None, None, -9.657, -1.34, 165.987]","[5988.01808779, 0.0239, -0.1694, 0.9966, -9.657, -1.34, 165.987]","[5988.118087885, 0.0225, -0.1699, 0.999, -9.657, -1.34, 165.987]","[5988.218087925, 0.022, -0.1689, 0.998, -9.657, -1.346, 165.987]","[5988.318087983, 0.0229, -0.1709, 0.9976, -9.657, -1.346, 165.987]","[5988.418088078, 0.0264, -0.1709, 0.9941, -9.657, -1.346, 165.987]","[5988.518088117, 0.02, -0.1675, 0.999, -9.657, -1.346, 165.987]","[5988.618088194, 0.0229, -0.1675, 0.9995, -9.657, -1.34, 165.987]","[5988.718088307, 0.0244, -0.1709, 0.9961, -9.662, -1.34, 165.987]","[5988.818088347, 0.0249, -0.1685, 0.9951, -9.662, -1.34, 165.987]","[5988.91808846, 0.0234, -0.1665, 0.9971, -9.651, -1.335, 165.987]","[5989.018088537, 0.0205, -0.1704, 1.0015, -9.668, -1.335, 165.987]","[5989.118088539, 0.0273, -0.1758, 1.0005, -9.701, -1.335, 165.987]","[5989.21808856, 0.0254, -0.1758, 0.9961, -9.701, -1.34, 165.987]","[5989.318088581, 0.0283, -0.1602, 0.9951, -9.635, -1.357, 165.992]","[5989.418088695, 0.022, -0.1685, 1.0005, -9.63, -1.362, 165.992]","[5989.518088697, 0.0254, -0.1641, 0.9951, -9.624, -1.362, 165.992]","[5989.618088755, 0.0254, -0.1699, 0.9971, -9.63, -1.368, 165.992]","[5989.718088869, 0.0215, -0.1694, 0.9956, -9.613, -1.384, 165.992]","[5989.818088945, 0.0283, -0.1675, 0.9951, -9.591, -1.401, 165.998]","[5989.91808904, 0.0273, -0.1787, 0.9966, -9.619, -1.412, 166.009]","[5990.018089098, 0.0264, -0.1602, 0.9927, -9.575, -1.434, 166.025]","[5990.118089175, 0.0254, -0.1724, 1.0044, -9.58, -1.439, 166.031]","[5990.218089233, 0.0225, -0.1675, 0.9971, -9.575, -1.428, 166.02]","[5990.318089272, 0.0244, -0.168, 0.9946, -9.58, -1.428, 166.02]","[5990.418089293, 0.0254, -0.1675, 0.9961, -9.591, -1.428, 166.02]","[5990.518089314, 0.0264, -0.1689, 0.9966, -9.602, -1.428, 166.014]","[5990.618089335, 0.0249, -0.1685, 0.9961, -9.602, -1.428, 166.014]","[5990.718089411, 0.0254, -0.1704, 0.9976, -9.608, -1.428, 166.014]","[5990.818089488, 0.0244, -0.168, 0.9971, -9.608, -1.434, 166.014]","[5990.91808949, 0.0254, -0.1685, 0.9971, -9.624, -1.434, 166.014]","[5991.018089511, 0.0283, -0.1694, 0.9951, -9.63, -1.434, 166.014]","[5991.118089588, 0.0234, -0.168, 0.998, -9.641, -1.434, 166.014]","[5991.218089609, 0.0254, -0.1694, 0.9971, -9.641, -1.439, 166.014]","[5991.318089611, 0.0259, -0.1655, 0.9937, -9.641, -1.434, 166.014]","[5991.418089613, 0.0254, -0.1694, 0.9961, -9.651, -1.434, 166.014]","[5991.51808969, 0.0278, -0.1665, 0.9961, -9.651, -1.434, 166.014]","[5991.618089766, 0.0239, -0.168, 0.999, -9.651, -1.434, 166.014]","[5991.718089824, 0.022, -0.1709, 0.9995, -9.657, -1.439, 166.014]","[5991.818089901, 0.0259, -0.1709, 0.9941, -9.662, -1.439, 166.014]"
"[5987.918087732, None, None, None, -9.657, -1.34, 165.987]","[5988.01808779, 0.0239, -0.1694, 0.9966, -9.657, -1.34, 165.987]","[5988.118087885, 0.0225, -0.1699, 0.999, -9.657, -1.34, 165.987]","[5988.218087925, 0.022, -0.1689, 0.998, -9.657, -1.346, 165.987]","[5988.318087983, 0.0229, -0.1709, 0.9976, -9.657, -1.346, 165.987]","[5988.418088078, 0.0264, -0.1709, 0.9941, -9.657, -1.346, 165.987]","[5988.518088117, 0.02, -0.1675, 0.999, -9.657, -1.346, 165.987]","[5988.618088194, 0.0229, -0.1675, 0.9995, -9.657, -1.34, 165.987]","[5988.718088307, 0.0244, -0.1709, 0.9961, -9.662, -1.34, 165.987]","[5988.818088347, 0.0249, -0.1685, 0.9951, -9.662, -1.34, 165.987]","[5988.91808846, 0.0234, -0.1665, 0.9971, -9.651, -1.335, 165.987]","[5989.018088537, 0.0205, -0.1704, 1.0015, -9.668, -1.335, 165.987]","[5989.118088539, 0.0273, -0.1758, 1.0005, -9.701, -1.335, 165.987]","[5989.21808856, 0.0254, -0.1758, 0.9961, -9.701, -1.34, 165.987]","[5989.318088581, 0.0283, -0.1602, 0.9951, -9.635, -1.357, 165.992]","[5989.418088695, 0.022, -0.1685, 1.0005, -9.63, -1.362, 165.992]","[5989.518088697, 0.0254, -0.1641, 0.9951, -9.624, -1.362, 165.992]","[5989.618088755, 0.0254, -0.1699, 0.9971, -9.63, -1.368, 165.992]","[5989.718088869, 0.0215, -0.1694, 0.9956, -9.613, -1.384, 165.992]","[5989.818088945, 0.0283, -0.1675, 0.9951, -9.591, -1.401, 165.998]","[5989.91808904, 0.0273, -0.1787, 0.9966, -9.619, -1.412, 166.009]","[5990.018089098, 0.0264, -0.1602, 0.9927, -9.575, -1.434, 166.025]","[5990.118089175, 0.0254, -0.1724, 1.0044, -9.58, -1.439, 166.031]","[5990.218089233, 0.0225, -0.1675, 0.9971, -9.575, -1.428, 166.02]","[5990.318089272, 0.0244, -0.168, 0.9946, -9.58, -1.428, 166.02]","[5990.418089293, 0.0254, -0.1675, 0.9961, -9.591, -1.428, 166.02]","[5990.518089314, 0.0264, -0.1689, 0.9966, -9.602, -1.428, 166.014]","[5990.618089335, 0.0249, -0.1685, 0.9961, -9.602, -1.428, 166.014]","[5990.718089411, 0.0254, -0.1704, 0.9976, -9.608, -1.428, 166.014]","[5990.818089488, 0.0244, -0.168, 0.9971, -9.608, -1.434, 166.014]","[5990.91808949, 0.0254, -0.1685, 0.9971, -9.624, -1.434, 166.014]","[5991.018089511, 0.0283, -0.1694, 0.9951, -9.63, -1.434, 166.014]","[5991.118089588, 0.0234, -0.168, 0.998, -9.641, -1.434, 166.014]","[5991.218089609, 0.0254, -0.1694, 0.9971, -9.641, -1.439, 166.014]","[5991.318089611, 0.0259, -0.1655, 0.9937, -9.641, -1.434, 166.014]","[5991.418089613, 0.0254, -0.1694, 0.9961, -9.651, -1.434, 166.014]","[5991.51808969, 0.0278, -0.1665, 0.9961, -9.651, -1.434, 166.014]","[5991.618089766, 0.0239, -0.168, 0.999, -9.651, -1.434, 166.014]","[5991.718089824, 0.022, -0.1709, 0.9995, -9.657, -1.439, 166.014]","[5991.818089901, 0.0259, -0.1709, 0.9941, -9.662, -1.439, 166.014]","[5991.918089903, 0.0269, -0.1699, 0.9956, -9.668, -1.439, 166.014]"
"[5987.918087732, None, None, None, -9.657, -1.34, 165.987]","[5988.01808779, 0.0239, -0.1694, 0.9966, -9.657, -1.34, 165.987]","[5988.118087885, 0.0225, -0.1699, 0.999, -9.657, -1.34, 165.987]","[5988.218087925, 0.022, -0.1689, 0.998, -9.657, -1.346, 165.987]","[5988.318087983, 0.0229, -0.1709, 0.9976, -9.657, -1.346, 165.987]","[5988.418088078, 0.0264, -0.1709, 0.9941, -9.657, -1.346, 165.987]","[5988.518088117, 0.02, -0.1675, 0.999, -9.657, -1.346, 165.987]","[5988.618088194, 0.0229, -0.1675, 0.9995, -9.657, -1.34, 165.987]","[5988.718088307, 0.0244, -0.1709, 0.9961, -9.662, -1.34, 165.987]","[5988.818088347, 0.0249, -0.1685, 0.9951, -9.662, -1.34, 165.987]","[5988.91808846, 0.0234, -0.1665, 0.9971, -9.651, -1.335, 165.987]","[5989.018088537, 0.0205, -0.1704, 1.0015, -9.668, -1.335, 165.987]","[5989.118088539, 0.0273, -0.1758, 1.0005, -9.701, -1.335, 165.987]","[5989.21808856, 0.0254, -0.1758, 0.9961, -9.701, -1.34, 165.987]","[5989.318088581, 0.0283, -0.1602, 0.9951, -9.635, -1.357, 165.992]","[5989.418088695, 0.022, -0.1685, 1.0005, -9.63, -1.362, 165.992]","[5989.518088697, 0.0254, -0.1641, 0.9951, -9.624, -1.362, 165.992]","[5989.618088755, 0.0254, -0.1699, 0.9971, -9.63, -1.368, 165.992]","[5989.718088869, 0.0215, -0.1694, 0.9956, -9.613, -1.384, 165.992]","[5989.818088945, 0.0283, -0.1675, 0.9951, -9.591, -1.401, 165.998]","[5989.91808904, 0.0273, -0.1787, 0.9966, -9.619, -1.412, 166.009]","[5990.018089098, 0.0264, -0.1602, 0.9927, -9.575, -1.434, 166.025]","[5990.118089175, 0.0254, -0.1724, 1.0044, -9.58, -1.439, 166.031]","[5990.218089233, 0.0225, -0.1675, 0.9971, -9.575, -1.428, 166.02]","[5990.318089272, 0.0244, -0.168, 0.9946, -9.58, -1.428, 166.02]","[5990.418089293, 0.0254, -0.1675, 0.9961, -9.591, -1.428, 166.02]","[5990.518089314, 0.0264, -0.1689, 0.9966, -9.602, -1.428, 166.014]","[5990.618089335, 0.0249, -0.1685, 0.9961, -9.602, -1.428, 166.014]","[5990.718089411, 0.0254, -0.1704, 0.9976, -9.608, -1.428, 166.014]","[5990.818089488, 0.0244, -0.168, 0.9971, -9.608, -1.434, 166.014]","[5990.91808949, 0.0254, -0.1685, 0.9971, -9.624, -1.434, 166.014]","[5991.018089511, 0.0283, -0.1694, 0.9951, -9.63, -1.434, 166.014]","[5991.118089588, 0.0234, -0.168, 0.998, -9.641, -1.434, 166.014]","[5991.218089609, 0.0254, -0.1694, 0.9971, -9.641, -1.439, 166.014]","[5991.318089611, 0.0259, -0.1655, 0.9937, -9.641, -1.434, 166.014]","[5991.418089613, 0.0254, -0.1694, 0.9961, -9.651, -1.434, 166.014]","[5991.51808969, 0.0278, -0.1665, 0.9961, -9.651, -1.434, 166.014]","[5991.618089766, 0.0239, -0.168, 0.999, -9.651, -1.434, 166.014]","[5991.718089824, 0.022, -0.1709, 0.9995, -9.657, -1.439, 166.014]","[5991.818089901, 0.0259, -0.1709, 0.9941, -9.662, -1.439, 166.014]","[5991.918089903, 0.0269, -0.1699, 0.9956, -9.668, -1.439, 166.014]","[5992.018089924, 0.0249, -0.1689, 0.9985, -9.668, -1.439, 166.014]"
"[5987.918087732, None, None, None, -9.657, -1.34, 165.987]","[5988.01808779, 0.0239, -0.1694, 0.9966, -9.657, -1.34, 165.987]","[5988.118087885, 0.0225, -0.1699, 0.999, -9.657, -1.34, 165.987]","[5988.218087925, 0.022, -0.1689, 0.998, -9.657, -1.346, 165.987]","[5988.318087983, 0.0229, -0.1709, 0.9976, -9.657, -1.346, 165.987]","[5988.418088078, 0.0264, -0.1709, 0.9941, -9.657, -1.346, 165.987]","[5988.518088117, 0.02, -0.1675, 0.999, -9.657, -1.346, 165.987]","[5988.618088194, 0.0229, -0.1675, 0.9995, -9.657, -1.34, 165.987]","[5988.718088307, 0.0244, -0.1709, 0.9961, -9.662, -1.34, 165.987]","[5988.818088347, 0.0249, -0.1685, 0.9951, -9.662, -1.34, 165.987]","[5988.91808846, 0.0234, -0.1665, 0.9971, -9.651, -1.335, 165.987]","[5989.018088537, 0.0205, -0.1704, 1.0015, -9.668, -1.335, 165.987]","[5989.118088539, 0.0273, -0.1758, 1.0005, -9.701, -1.335, 165.987]","[5989.21808856, 0.0254, -0.1758, 0.9961, -9.701, -1.34, 165.987]","[5989.318088581, 0.0283, -0.1602, 0.9951, -9.635, -1.357, 165.992]","[5989.418088695, 0.022, -0.1685, 1.0005, -9.63, -1.362, 165.992]","[5989.518088697, 0.0254, -0.1641, 0.9951, -9.624, -1.362, 165.992]","[5989.618088755, 0.0254, -0.1699, 0.9971, -9.63, -1.368, 165.992]","[5989.718088869, 0.0215, -0.1694, 0.9956, -9.613, -1.384, 165.992]","[5989.818088945, 0.0283, -0.1675, 0.9951, -9.591, -1.401, 165.998]","[5989.91808904, 0.0273, -0.1787, 0.9966, -9.619, -1.412, 166.009]","[5990.018089098, 0.0264, -0.1602, 0.9927, -9.575, -1.434, 166.025]","[5990.118089175, 0.0254, -0.1724, 1.0044, -9.58, -1.439, 166.031]","[5990.218089233, 0.0225, -0.1675, 0.9971, -9.575, -1.428, 166.02]","[5990.318089272, 0.0244, -0.168, 0.9946, -9.58, -1.428, 166.02]","[5990.418089293, 0.0254, -0.1675, 0.9961, -9.591, -1.428, 166.02]","[5990.518089314, 0.0264, -0.1689, 0.9966, -9.602, -1.428, 166.014]","[5990.618089335, 0.0249, -0.1685, 0.9961, -9.602, -1.428, 166.014]","[5990.718089411, 0.0254, -0.1704, 0.9976, -9.608, -1.428, 166.014]","[5990.818089488, 0.0244, -0.168, 0.9971, -9.608, -1.434, 166.014]","[5990.91808949, 0.0254, -0.1685, 0.9971, -9.624, -1.434, 166.014]","[5991.018089511, 0.0283, -0.1694, 0.9951, -9.63, -1.434, 166.014]","[5991.118089588, 0.0234, -0.168, 0.998, -9.641, -1.434, 166.014]","[5991.218089609, 0.0254, -0.1694, 0.9971, -9.641, -1.439, 166.014]","[5991.318089611, 0.0259, -0.1655, 0.9937, -9.641, -1.434, 166.014]","[5991.418089613, 0.0254, -0.1694, 0.9961, -9.651, -1.434, 166.014]","[5991.51808969, 0.0278, -0.1665, 0.9961, -9.651, -1.434, 166.014]","[5991.618089766, 0.0239, -0.168, 0.999, -9.651, -1.434, 166.014]","[5991.718089824, 0.022, -0.1709, 0.9995, -9.657, -1.439, 166.014]","[5991.818089901, 0.0259, -0.1709, 0.9941, -9.662, -1.439, 166.014]","[5991.918089903, 0.0269, -0.1699, 0.9956, -9.668, -1.439, 166.014]","[5992.018089924, 0.0249, -0.1689, 0.9985, -9.668, -1.439, 166.014]","[5992.118089964, 0.0254, -0.1694, 0.9971, -9.668, -1.439, 166.014]"
"[5987.918087732, None, None, None, -9.657, -1.34, 165.987]","[5988.01808779, 0.0239, -0.1694, 0.9966, -9.657, -1.34, 165.987]","[5988.118087885, 0.0225, -0.1699, 0.999, -9.657, -1.34, 165.987]","[5988.218087925, 0.022, -0.1689, 0.998, -9.657, -1.346, 165.987]","[5988.318087983, 0.0229, -0.1709, 0.9976, -9.657, -1.346, 165.987]","[5988.418088078, 0.0264, -0.1709, 0.9941, -9.657, -1.346, 165.987]","[5988.518088117, 0.02, -0.1675, 0.999, -9.657, -1.346, 165.987]","[5988.618088194, 0.0229, -0.1675, 0.9995, -9.657, -1.34, 165.987]","[5988.718088307, 0.0244, -0.1709, 0.9961, -9.662, -1.34, 165.987]","[5988.818088347, 0.0249, -0.1685, 0.9951, -9.662, -1.34, 165.987]","[5988.91808846, 0.0234, -0.1665, 0.9971, -9.651, -1.335, 165.987]","[5989.018088537, 0.0205, -0.1704, 1.0015, -9.668, -1.335, 165.987]","[5989.118088539, 0.0273, -0.1758, 1.0005, -9.701, -1.335, 165.987]","[5989.21808856, 0.0254, -0.1758, 0.9961, -9.701, -1.34, 165.987]","[5989.318088581, 0.0283, -0.1602, 0.9951, -9.635, -1.357, 165.992]","[5989.418088695, 0.022, -0.1685, 1.0005, -9.63, -1.362, 165.992]","[5989.518088697, 0.0254, -0.1641, 0.9951, -9.624, -1.362, 165.992]","[5989.618088755, 0.0254, -0.1699, 0.9971, -9.63, -1.368, 165.992]","[5989.718088869, 0.0215, -0.1694, 0.9956, -9.613, -1.384, 165.992]","[5989.818088945, 0.0283, -0.1675, 0.9951, -9.591, -1.401, 165.998]","[5989.91808904, 0.0273, -0.1787, 0.9966, -9.619, -1.412, 166.009]","[5990.018089098, 0.0264, -0.1602, 0.9927, -9.575, -1.434, 166.025]","[5990.118089175, 0.0254, -0.1724, 1.0044, -9.58, -1.439, 166.031]","[5990.218089233, 0.0225, -0.1675, 0.9971, -9.575, -1.428, 166.02]","[5990.318089272, 0.0244, -0.168, 0.9946, -9.58, -1.428, 166.02]","[5990.418089293, 0.0254, -0.1675, 0.9961, -9.591, -1.428, 166.02]","[5990.518089314, 0.0264, -0.1689, 0.9966, -9.602, -1.428, 166.014]","[5990.618089335, 0.0249, -0.1685, 0.9961, -9.602, -1.428, 166.014]","[5990.718089411, 0.0254, -0.1704, 0.9976, -9.608, -1.428, 166.014]","[5990.818089488, 0.0244, -0.168, 0.9971, -9.608, -1.434, 166.014]","[5990.91808949, 0.0254, -0.1685, 0.9971, -9.624, -1.434, 166.014]","[5991.018089511, 0.0283, -0.1694, 0.9951, -9.63, -1.434, 166.014]","[5991.118089588, 0.0234, -0.168, 0.998, -9.641, -1.434, 166.014]","[5991.218089609, 0.0254, -0.1694, 0.9971, -9.641, -1.439, 166.014]","[5991.318089611, 0.0259, -0.1655, 0.9937, -9.641, -1.434, 166.014]","[5991.418089613, 0.0254, -0.1694, 0.9961, -9.651, -1.434, 166.014]","[5991.51808969, 0.0278, -0.1665, 0.9961, -9.651, -1.434, 166.014]","[5991.618089766, 0.0239, -0.168, 0.999, -9.651, -1.434, 166.014]","[5991.718089824, 0.022, -0.1709, 0.9995, -9.657, -1.439, 166.014]","[5991.818089901, 0.0259, -0.1709, 0.9941, -9.662, -1.439, 166.014]","[5991.918089903, 0.0269, -0.1699, 0.9956, -9.668, -1.439, 166.014]","[5992.018089924, 0.0249, -0.1689, 0.9985, -9.668, -1.439, 166.014]","[5992.118089964, 0.0254, -0.1694, 0.9971, -9.668, -1.439, 166.014]","[5992.21809004, 0.0259, -0.1719, 0.9976, -9.668, -1.439, 166.014]"
"[5987.918087732, None, None, None, -9.657, -1.34, 165.987]","[5988.01808779, 0.0239, -0.1694, 0.9966, -9.657, -1.34, 165.987]","[5988.118087885, 0.0225, -0.1699, 0.999, -9.657, -1.34, 165.987]","[5988.218087925, 0.022, -0.1689, 0.998, -9.657, -1.346, 165.987]","[5988.318087983, 0.0229, -0.1709, 0.9976, -9.657, -1.346, 165.987]","[5988.418088078, 0.0264, -0.1709, 0.9941, -9.657, -1.346, 165.987]","[5988.518088117, 0.02, -0.1675, 0.999, -9.657, -1.346, 165.987]","[5988.618088194, 0.0229, -0.1675, 0.9995, -9.657, -1.34, 165.987]","[5988.718088307, 0.0244, -0.1709, 0.9961, -9.662, -1.34, 165.987]","[5988.818088347, 0.0249, -0.1685, 0.9951, -9.662, -1.34, 165.987]","[5988.91808846, 0.0234, -0.1665, 0.9971, -9.651, -1.335, 165.987]","[5989.018088537, 0.0205, -0.1704, 1.0015, -9.668, -1.335, 165.987]","[5989.118088539, 0.0273, -0.1758, 1.0005, -9.701, -1.335, 165.987]","[5989.21808856, 0.0254, -0.1758, 0.9961, -9.701, -1.34, 165.987]","[5989.318088581, 0.0283, -0.1602, 0.9951, -9.635, -1.357, 165.992]","[5989.418088695, 0.022, -0.1685, 1.0005, -9.63, -1.362, 165.992]","[5989.518088697, 0.0254, -0.1641, 0.9951, -9.624, -1.362, 165.992]","[5989.618088755, 0.0254, -0.1699, 0.9971, -9.63, -1.368, 165.992]","[5989.718088869, 0.0215, -0.1694, 0.9956, -9.613, -1.384, 165.992]","[5989.818088945, 0.0283, -0.1675, 0.9951, -9.591, -1.401, 165.998]","[5989.91808904, 0.0273, -0.1787, 0.9966, -9.619, -1.412, 166.009]","[5990.018089098, 0.0264, -0.1602, 0.9927, -9.575, -1.434, 166.025]","[5990.118089175, 0.0254, -0.1724, 1.0044, -9.58, -1.439, 166.031]","[5990.218089233, 0.0225, -0.1675, 0.9971, -9.575, -1.428, 166.02]","[5990.318089272, 0.0244, -0.168, 0.9946, -9.58, -1.428, 166.02]","[5990.418089293, 0.0254, -0.1675, 0.9961, -9.591, -1.428, 166.02]","[5990.518089314, 0.0264, -0.1689, 0.9966, -9.602, -1.428, 166.014]","[5990.618089335, 0.0249, -0.1685, 0.9961, -9.602, -1.428, 166.014]","[5990.718089411, 0.0254, -0.1704, 0.9976, -9.608, -1.428, 166.014]","[5990.818089488, 0.0244, -0.168, 0.9971, -9.608, -1.434, 166.014]","[5990.91808949, 0.0254, -0.1685, 0.9971, -9.624, -1.434, 166.014]","[5991.018089511, 0.0283, -0.1694, 0.9951, -9.63, -1.434, 166.014]","[5991.118089588, 0.0234, -0.168, 0.998, -9.641, -1.434, 166.014]","[5991.218089609, 0.0254, -0.1694, 0.9971, -9.641, -1.439, 166.014]","[5991.318089611, 0.0259, -0.1655, 0.9937, -9.641, -1.434, 166.014]","[5991.418089613, 0.0254, -0.1694, 0.9961, -9.651, -1.434, 166.014]","[5991.51808969, 0.0278, -0.1665, 0.9961, -9.651, -1.434, 166.014]","[5991.618089766, 0.0239, -0.168, 0.999, -9.651, -1.434, 166.014]","[5991.718089824, 0.022, -0.1709, 0.9995, -9.657, -1.439, 166.014]","[5991.818089901, 0.0259, -0.1709, 0.9941, -9.662, -1.439, 166.014]","[5991.918089903, 0.0269, -0.1699, 0.9956, -9.668, -1.439, 166.014]","[5992.018089924, 0.0249, -0.1689, 0.9985, -9.668, -1.439, 166.014]","[5992.118089964, 0.0254, -0.1694, 0.9971, -9.668, -1.439, 166.014]","[5992.21809004, 0.0259, -0.1719, 0.9976, -9.668, -1.439, 166.014]","[5992.318090154, 0.0259, -0.1719, 0.9966, -9.668, -1.439, 166.014]"
"[5987.918087732, None, None, None, -9.657, -1.34, 165.987]","[5988.01808779, 0.0239, -0.1694, 0.9966, -9.657, -1.34, 165.987]","[5988.118087885, 0.0225, -0.1699, 0.999, -9.657, -1.34, 165.987]","[5988.218087925, 0.022, -0.1689, 0.998, -9.657, -1.346, 165.987]","[5988.318087983, 0.0229, -0.1709, 0.9976, -9.657, -1.346, 165.987]","[5988.418088078, 0.0264, -0.1709, 0.9941, -9.657, -1.346, 165.987]","[5988.518088117, 0.02, -0.1675, 0.999, -9.657, -1.346, 165.987]","[5988.618088194, 0.0229, -0.1675, 0.9995, -9.657, -1.34, 165.987]","[5988.718088307, 0.0244, -0.1709, 0.9961, -9.662, -1.34, 165.987]","[5988.818088347, 0.0249, -0.1685, 0.9951, -9.662, -1.34, 165.987]","[5988.91808846, 0.0234, -0.1665, 0.9971, -9.651, -1.335, 165.987]","[5989.018088537, 0.0205, -0.1704, 1.0015, -9.668, -1.335, 165.987]","[5989.118088539, 0.0273, -0.1758, 1.0005, -9.701, -1.335, 165.987]","[5989.21808856, 0.0254, -0.1758, 0.9961, -9.701, -1.34, 165.987]","[5989.318088581, 0.0283, -0.1602, 0.9951, -9.635, -1.357, 165.992]","[5989.418088695, 0.022, -0.1685, 1.0005, -9.63, -1.362, 165.992]","[5989.518088697, 0.0254, -0.1641, 0.9951, -9.624, -1.362, 165.992]","[5989.618088755, 0.0254, -0.1699, 0.9971, -9.63, -1.368, 165.992]","[5989.718088869, 0.0215, -0.1694, 0.9956, -9.613, -1.384, 165.992]","[5989.818088945, 0.0283, -0.1675, 0.9951, -9.591, -1.401, 165.998]","[5989.91808904, 0.0273, -0.1787, 0.9966, -9.619, -1.412, 166.009]","[5990.018089098, 0.0264, -0.1602, 0.9927, -9.575, -1.434, 166.025]","[5990.118089175, 0.0254, -0.1724, 1.0044, -9.58, -1.439, 166.031]","[5990.218089233, 0.0225, -0.1675, 0.9971, -9.575, -1.428, 166.02]","[5990.318089272, 0.0244, -0.168, 0.9946, -9.58, -1.428, 166.02]","[5990.418089293, 0.0254, -0.1675, 0.9961, -9.591, -1.428, 166.02]","[5990.518089314, 0.0264, -0.1689, 0.9966, -9.602, -1.428, 166.014]","[5990.618089335, 0.0249, -0.1685, 0.9961, -9.602, -1.428, 166.014]","[5990.718089411, 0.0254, -0.1704, 0.9976, -9.608, -1.428, 166.014]","[5990.818089488, 0.0244, -0.168, 0.9971, -9.608, -1.434, 166.014]","[5990.91808949, 0.0254, -0.1685, 0.9971, -9.624, -1.434, 166.014]","[5991.018089511, 0.0283, -0.1694, 0.9951, -9.63, -1.434, 166.014]","[5991.118089588, 0.0234, -0.168, 0.998, -9.641, -1.434, 166.014]","[5991.218089609, 0.0254, -0.1694, 0.9971, -9.641, -1.439, 166.014]","[5991.318089611, 0.0259, -0.1655, 0.9937, -9.641, -1.434, 166.014]","[5991.418089613, 0.0254, -0.1694, 0.9961, -9.651, -1.434, 166.014]","[5991.51808969, 0.0278, -0.1665, 0.9961, -9.651, -1.434, 166.014]","[5991.618089766, 0.0239, -0.168, 0.999, -9.651, -1.434, 166.014]","[5991.718089824, 0.022, -0.1709, 0.9995, -9.657, -1.439, 166.014]","[5991.818089901, 0.0259, -0.1709, 0.9941, -9.662, -1.439, 166.014]","[5991.918089903, 0.0269, -0.1699, 0.9956, -9.668, -1.439, 166.014]","[5992.018089924, 0.0249, -0.1689, 0.9985, -9.668, -1.439, 166.014]","[5992.118089964, 0.0254, -0.1694, 0.9971, -9.668, -1.439, 166.014]","[5992.21809004, 0.0259, -0.1719, 0.9976, -9.668, -1.439, 166.014]","[5992.318090154, 0.0259, -0.1719, 0.9966, -9.668, -1.439, 166.014]","[5992.418090212, 0.0225, -0.1719, 1.0024, -9.668, -1.439, 166.014]"
"[5987.918087732, None, None, None, -9.657, -1.34, 165.987]","[5988.01808779, 0.0239, -0.1694, 0.9966, -9.657, -1.34, 165.987]","[5988.118087885, 0.0225, -0.1699, 0.999, -9.657, -1.34, 165.987]","[5988.218087925, 0.022, -0.1689, 0.998, -9.657, -1.346, 165.987]","[5988.318087983, 0.0229, -0.1709, 0.9976, -9.657, -1.346, 165.987]","[5988.418088078, 0.0264, -0.1709, 0.9941, -9.657, -1.346, 165.987]","[5988.518088117, 0.02, -0.1675, 0.999, -9.657, -1.346, 165.987]","[5988.618088194, 0.0229, -0.1675, 0.9995, -9.657, -1.34, 165.987]","[5988.718088307, 0.0244, -0.1709, 0.9961, -9.662, -1.34, 165.987]","[5988.818088347, 0.0249, -0.1685, 0.9951, -9.662, -1.34, 165.987]","[5988.91808846, 0.0234, -0.1665, 0.9971, -9.651, -1.335, 165.987]","[5989.018088537, 0.0205, -0.1704, 1.0015, -9.668, -1.335, 165.987]","[5989.118088539, 0.0273, -0.1758, 1.0005, -9.701, -1.335, 165.987]","[5989.21808856, 0.0254, -0.1758, 0.9961, -9.701, -1.34, 165.987]","[5989.318088581, 0.0283, -0.1602, 0.9951, -9.635, -1.357, 165.992]","[5989.418088695, 0.022, -0.1685, 1.0005, -9.63, -1.362, 165.992]","[5989.518088697, 0.0254, -0.1641, 0.9951, -9.624, -1.362, 165.992]","[5989.618088755, 0.0254, -0.1699, 0.9971, -9.63, -1.368, 165.992]","[5989.718088869, 0.0215, -0.1694, 0.9956, -9.613, -1.384, 165.992]","[5989.818088945, 0.0283, -0.1675, 0.9951, -9.591, -1.401, 165.998]","[5989.91808904, 0.0273, -0.1787, 0.9966, -9.619, -1.412, 166.009]","[5990.018089098, 0.0264, -0.1602, 0.9927, -9.575, -1.434, 166.025]","[5990.118089175, 0.0254, -0.1724, 1.0044, -9.58, -1.439, 166.031]","[5990.218089233, 0.0225, -0.1675, 0.9971, -9.575, -1.428, 166.02]","[5990.318089272, 0.0244, -0.168, 0.9946, -9.58, -1.428, 166.02]","[5990.418089293, 0.0254, -0.1675, 0.9961, -9.591, -1.428, 166.02]","[5990.518089314, 0.0264, -0.1689, 0.9966, -9.602, -1.428, 166.014]","[5990.618089335, 0.0249, -0.1685, 0.9961, -9.602, -1.428, 166.014]","[5990.718089411, 0.0254, -0.1704, 0.9976, -9.608, -1.428, 166.014]","[5990.818089488, 0.0244, -0.168, 0.9971, -9.608, -1.434, 166.014]","[5990.91808949, 0.0254, -0.1685, 0.9971, -9.624, -1.434, 166.014]","[5991.018089511, 0.0283, -0.1694, 0.9951, -9.63, -1.434, 166.014]","[5991.118089588, 0.0234, -0.168, 0.998, -9.641, -1.434, 166.014]","[5991.218089609, 0.0254, -0.1694, 0.9971, -9.641, -1.439, 166.014]","[5991.318089611, 0.0259, -0.1655, 0.9937, -9.641, -1.434, 166.014]","[5991.418089613, 0.0254, -0.1694, 0.9961, -9.651, -1.434, 166.014]","[5991.51808969, 0.0278, -0.1665, 0.9961, -9.651, -1.434, 166.014]","[5991.618089766, 0.0239, -0.168, 0.999, -9.651, -1.434, 166.014]","[5991.718089824, 0.022, -0.1709, 0.9995, -9.657, -1.439, 166.014]","[5991.818089901, 0.0259, -0.1709, 0.9941, -9.662, -1.439, 166.014]","[5991.918089903, 0.0269, -0.1699, 0.9956, -9.668, -1.439, 166.014]","[5992.018089924, 0.0249, -0.1689, 0.9985, -9.668, -1.439, 166.014]","[5992.118089964, 0.0254, -0.1694, 0.9971, -9.668, -1.439, 166.014]","[5992.21809004, 0.0259, -0.1719, 0.9976, -9.668, -1.439, 166.014]","[5992.318090154, 0.0259, -0.1719, 0.9966, -9.668, -1.439, 166.014]","[5992.418090212, 0.0225, -0.1719, 1.0024, -9.668, -1.439, 166.014]","[5992.518090307, 0.0298, -0.168, 0.9897, -9.673, -1.439, 166.014]"
"[5987.918087732, None, None, None, -9.657, -1.34, 165.987]","[5988.01808779, 0.0239, -0.1694, 0.9966, -9.657, -1.34, 165.987]","[5988.118087885, 0.0225, -0.1699, 0.999, -9.657, -1.34, 165.987]","[5988.218087925, 0.022, -0.1689, 0.998, -9.657, -1.346, 165.987]","[5988.318087983, 0.0229, -0.1709, 0.9976, -9.657, -1.346, 165.987]","[5988.418088078, 0.0264, -0.1709, 0.9941, -9.657, -1.346, 165.987]","[5988.518088117, 0.02, -0.1675, 0.999, -9.657, -1.346, 165.987]","[5988.618088194, 0.0229, -0.1675, 0.9995, -9.657, -1.34, 165.987]","[5988.718088307, 0.0244, -0.1709, 0.9961, -9.662, -1.34, 165.987]","[5988.818088347, 0.0249, -0.1685, 0.9951, -9.662, -1.34, 165.987]","[5988.91808846, 0.0234, -0.1665, 0.9971, -9.651, -1.335, 165.987]","[5989.018088537, 0.0205, -0.1704, 1.0015, -9.668, -1.335, 165.987]","[5989.118088539, 0.0273, -0.1758, 1.0005, -9.701, -1.335, 165.987]","[5989.21808856, 0.0254, -0.1758, 0.9961, -9.701, -1.34, 165.987]","[5989.318088581, 0.0283, -0.1602, 0.9951, -9.635, -1.357, 165.992]","[5989.418088695, 0.022, -0.1685, 1.0005, -9.63, -1.362, 165.992]","[5989.518088697, 0.0254, -0.1641, 0.9951, -9.624, -1.362, 165.992]","[5989.618088755, 0.0254, -0.1699, 0.9971, -9.63, -1.368, 165.992]","[5989.718088869, 0.0215, -0.1694, 0.9956, -9.613, -1.384, 165.992]","[5989.818088945, 0.0283, -0.1675, 0.9951, -9.591, -1.401, 165.998]","[5989.91808904, 0.0273, -0.1787, 0.9966, -9.619, -1.412, 166.009]","[5990.018089098, 0.0264, -0.1602, 0.9927, -9.575, -1.434, 166.025]","[5990.118089175, 0.0254, -0.1724, 1.0044, -9.58, -1.439, 166.031]","[5990.218089233, 0.0225, -0.1675, 0.9971, -9.575, -1.428, 166.02]","[5990.318089272, 0.0244, -0.168, 0.9946, -9.58, -1.428, 166.02]","[5990.418089293, 0.0254, -0.1675, 0.9961, -9.591, -1.428, 166.02]","[5990.518089314, 0.0264, -0.1689, 0.9966, -9.602, -1.428, 166.014]","[5990.618089335, 0.0249, -0.1685, 0.9961, -9.602, -1.428, 166.014]","[5990.718089411, 0.0254, -0.1704, 0.9976, -9.608, -1.428, 166.014]","[5990.818089488, 0.0244, -0.168, 0.9971, -9.608, -1.434, 166.014]","[5990.91808949, 0.0254, -0.1685, 0.9971, -9.624, -1.434, 166.014]","[5991.018089511, 0.0283, -0.1694, 0.9951, -9.63, -1.434, 166.014]","[5991.118089588, 0.0234, -0.168, 0.998, -9.641, -1.434, 166.014]","[5991.218089609, 0.0254, -0.1694, 0.9971, -9.641, -1.439, 166.014]","[5991.318089611, 0.0259, -0.1655, 0.9937, -9.641, -1.434, 166.014]","[5991.418089613, 0.0254, -0.1694, 0.9961, -9.651, -1.434, 166.014]","[5991.51808969, 0.0278, -0.1665, 0.9961, -9.651, -1.434, 166.014]","[5991.618089766, 0.0239, -0.168, 0.999, -9.651, -1.434, 166.014]","[5991.718089824, 0.022, -0.1709, 0.9995, -9.657, -1.439, 166.014]","[5991.818089901, 0.0259, -0.1709, 0.9941, -9.662, -1.439, 166.014]","[5991.918089903, 0.0269, -0.1699, 0.9956, -9.668, -1.439, 166.014]","[5992.018089924, 0.0249, -0.1689, 0.9985, -9.668, -1.439, 166.014]","[5992.118089964, 0.0254, -0.1694, 0.9971, -9.668, -1.439, 166.014]","[5992.21809004, 0.0259, -0.1719, 0.9976, -9.668, -1.439, 166.014]","[5992.318090154, 0.0259, -0.1719, 0.9966, -9.668, -1.439, 166.014]","[5992.418090212, 0.0225, -0.1719, 1.0024, -9.668, -1.439, 166.014]","[5992.518090307, 0.0298, -0.168, 0.9897, -9.673, -1.439, 166.014]","[5992.618090383, 0.0259, -0.1748, 0.9985, -9.706, -1.439, 166.014]"
"[5987.918087732, None, None, None, -9.657, -1.34, 165.987]","[5988.01808779, 0.0239, -0.1694, 0.9966, -9.657, -1.34, 165.987]","[5988.118087885, 0.0225, -0.1699, 0.999, -9.657, -1.34, 165.987]","[5988.218087925, 0.022, -0.1689, 0.998, -9.657, -1.346, 165.987]","[5988.318087983, 0.0229, -0.1709, 0.9976, -9.657, -1.346, 165.987]","[5988.418088078, 0.0264, -0.1709, 0.9941, -9.657, -1.346, 165.987]","[5988.518088117, 0.02, -0.1675, 0.999, -9.657, -1.346, 165.987]","[5988.618088194, 0.0229, -0.1675, 0.9995, -9.657, -1.34, 165.987]","[5988.718088307, 0.0244, -0.1709, 0.9961, -9.662, -1.34, 165.987]","[5988.818088347, 0.0249, -0.1685, 0.9951, -9.662, -1.34, 165.987]","[5988.91808846, 0.0234, -0.1665, 0.9971, -9.651, -1.335, 165.987]","[5989.018088537, 0.0205, -0.1704, 1.0015, -9.668, -1.335, 165.987]","[5989.118088539, 0.0273, -0.1758, 1.0005, -9.701, -1.335, 165.987]","[5989.21808856, 0.0254, -0.1758, 0.9961, -9.701, -1.34, 165.987]","[5989.318088581, 0.0283, -0.1602, 0.9951, -9.635, -1.357, 165.992]","[5989.418088695, 0.022, -0.1685, 1.0005, -9.63, -1.362, 165.992]","[5989.518088697, 0.0254, -0.1641, 0.9951, -9.624, -1.362, 165.992]","[5989.618088755, 0.0254, -0.1699, 0.9971, -9.63, -1.368, 165.992]","[5989.718088869, 0.0215, -0.1694, 0.9956, -9.613, -1.384, 165.992]","[5989.818088945, 0.0283, -0.1675, 0.9951, -9.591, -1.401, 165.998]","[5989.91808904, 0.0273, -0.1787, 0.9966, -9.619, -1.412, 166.009]","[5990.018089098, 0.0264, -0.1602, 0.9927, -9.575, -1.434, 166.025]","[5990.118089175, 0.0254, -0.1724, 1.0044, -9.58, -1.439, 166.031]","[5990.218089233, 0.0225, -0.1675, 0.9971, -9.575, -1.428, 166.02]","[5990.318089272, 0.0244, -0.168, 0.9946, -9.58, -1.428, 166.02]","[5990.418089293, 0.0254, -0.1675, 0.9961, -9.591, -1.428, 166.02]","[5990.518089314, 0.0264, -0.1689, 0.9966, -9.602, -1.428, 166.014]","[5990.618089335, 0.0249, -0.1685, 0.9961, -9.602, -1.428, 166.014]","[5990.718089411, 0.0254, -0.1704, 0.9976, -9.608, -1.428, 166.014]","[5990.818089488, 0.0244, -0.168, 0.9971, -9.608, -1.434, 166.014]","[5990.91808949, 0.0254, -0.1685, 0.9971, -9.624, -1.434, 166.014]","[5991.018089511, 0.0283, -0.1694, 0.9951, -9.63, -1.434, 166.014]","[5991.118089588, 0.0234, -0.168, 0.998, -9.641, -1.434, 166.014]","[5991.218089609, 0.0254, -0.1694, 0.9971, -9.641, -1.439, 166.014]","[5991.318089611, 0.0259, -0.1655, 0.9937, -9.641, -1.434, 166.014]","[5991.418089613, 0.0254, -0.1694, 0.9961, -9.651, -1.434, 166.014]","[5991.51808969, 0.0278, -0.1665, 0.9961, -9.651, -1.434, 166.014]","[5991.618089766, 0.0239, -0.168, 0.999, -9.651, -1.434, 166.014]","[5991.718089824, 0.022, -0.1709, 0.9995, -9.657, -1.439, 166.014]","[5991.818089901, 0.0259, -0.1709, 0.9941, -9.662, -1.439, 166.014]","[5991.918089903, 0.0269, -0.1699, 0.9956, -9.668, -1.439, 166.014]","[5992.018089924, 0.0249, -0.1689, 0.9985, -9.668, -1.439, 166.014]","[5992.118089964, 0.0254, -0.1694, 0.9971, -9.668, -1.439, 166.014]","[5992.21809004, 0.0259, -0.1719, 0.9976, -9.668, -1.439, 166.014]","[5992.318090154, 0.0259, -0.1719, 0.9966, -9.668, -1.439, 166.014]","[5992.418090212, 0.0225, -0.1719, 1.0024, -9.668, -1.439, 166.014]","[5992.518090307, 0.0298, -0.168, 0.9897, -9.673, -1.439, 166.014]","[5992.618090383, 0.0259, -0.1748, 0.9985, -9.706, -1.439, 166.014]","[5992.718090385, 0.0244, -0.1694, 0.9966, -9.69, -1.445, 166.014]"
"[5987.918087732, None, None, None, -9.657, -1.34, 165.987]","[5988.01808779, 0.0239, -0.1694, 0.9966, -9.657, -1.34, 165.987]","[5988.118087885, 0.0225, -0.1699, 0.999, -9.657, -1.34, 165.987]","[5988.218087925, 0.022, -0.1689, 0.998, -9.657, -1.346, 165.987]","[5988.318087983, 0.0229, -0.1709, 0.9976, -9.657, -1.346, 165.987]","[5988.418088078, 0.0264, -0.1709, 0.9941, -9.657, -1.346, 165.987]","[5988.518088117, 0.02, -0.1675, 0.999, -9.657, -1.346, 165.987]","[5988.618088194, 0.0229, -0.1675, 0.9995, -9.657, -1.34, 165.987]","[5988.718088307, 0.0244, -0.1709, 0.9961, -9.662, -1.34, 165.987]","[5988.818088347, 0.0249, -0.1685, 0.9951, -9.662, -1.34, 165.987]","[5988.91808846, 0.0234, -0.1665, 0.9971, -9.651, -1.335, 165.987]","[5989.018088537, 0.0205, -0.1704, 1.0015, -9.668, -1.335, 165.987]","[5989.118088539, 0.0273, -0.1758, 1.0005, -9.701, -1.335, 165.987]","[5989.21808856, 0.0254, -0.1758, 0.9961, -9.701, -1.34, 165.987]","[5989.318088581, 0.0283, -0.1602, 0.9951, -9.635, -1.357, 165.992]","[5989.418088695, 0.022, -0.1685, 1.0005, -9.63, -1.362, 165.992]","[5989.518088697, 0.0254, -0.1641, 0.9951, -9.624, -1.362, 165.992]","[5989.618088755, 0.0254, -0.1699, 0.9971, -9.63, -1.368, 165.992]","[5989.718088869, 0.0215, -0.1694, 0.9956, -9.613, -1.384, 165.992]","[5989.818088945, 0.0283, -0.1675, 0.9951, -9.591, -1.401, 165.998]","[5989.91808904, 0.0273, -0.1787, 0.9966, -9.619, -1.412, 166.009]","[5990.018089098, 0.0264, -0.1602, 0.9927, -9.575, -1.434, 166.025]","[5990.118089175, 0.0254, -0.1724, 1.0044, -9.58, -1.439, 166.031]","[5990.218089233, 0.0225, -0.1675, 0.9971, -9.575, -1.428, 166.02]","[5990.318089272, 0.0244, -0.168, 0.9946, -9.58, -1.428, 166.02]","[5990.418089293, 0.0254, -0.1675, 0.9961, -9.591, -1.428, 166.02]","[5990.518089314, 0.0264, -0.1689, 0.9966, -9.602, -1.428, 166.014]","[5990.618089335, 0.0249, -0.1685, 0.9961, -9.602, -1.428, 166.014]","[5990.718089411, 0.0254, -0.1704, 0.9976, -9.608, -1.428, 166.014]","[5990.818089488, 0.0244, -0.168, 0.9971, -9.608, -1.434, 166.014]","[5990.91808949, 0.0254, -0.1685, 0.9971, -9.624, -1.434, 166.014]","[5991.018089511, 0.0283, -0.1694, 0.9951, -9.63, -1.434, 166.014]","[5991.118089588, 0.0234, -0.168, 0.998, -9.641, -1.434, 166.014]","[5991.218089609, 0.0254, -0.1694, 0.9971, -9.641, -1.439, 166.014]","[5991.318089611, 0.0259, -0.1655, 0.9937, -9.641, -1.434, 166.014]","[5991.418089613, 0.0254, -0.1694, 0.9961, -9.651, -1.434, 166.014]","[5991.51808969, 0.0278, -0.1665, 0.9961, -9.651, -1.434, 166.014]","[5991.618089766, 0.0239, -0.168, 0.999, -9.651, -1.434, 166.014]","[5991.718089824, 0.022, -0.1709, 0.9995, -9.657, -1.439, 166.014]","[5991.818089901, 0.0259, -0.1709, 0.9941, -9.662, -1.439, 166.014]","[5991.918089903, 0.0269, -0.1699, 0.9956, -9.668, -1.439, 166.014]","[5992.018089924, 0.0249, -0.1689, 0.9985, -9.668, -1.439, 166.014]","[5992.118089964, 0.0254, -0.1694, 0.9971, -9.668, -1.439, 166.014]","[5992.21809004, 0.0259, -0.1719, 0.9976, -9.668, -1.439, 166.014]","[5992.318090154, 0.0259, -0.1719, 0.9966, -9.668, -1.439, 166.014]","[5992.418090212, 0.0225, -0.1719, 1.0024, -9.668, -1.439, 166.014]","[5992.518090307, 0.0298, -0.168, 0.9897, -9.673, -1.439, 166.014]","[5992.618090383, 0.0259, -0.1748, 0.9985, -9.706, -1.439, 166.014]","[5992.718090385, 0.0244, -0.1694, 0.9966, -9.69, -1.445, 166.014]","[5992.818090499, 0.0259, -0.1704, 0.9976, -9.69, -1.445, 166.014]"
"[5987.918087732, None, None, None, -9.657, -1.34, 165.987]","[5988.01808779, 0.0239, -0.1694, 0.9966, -9.657, -1.34, 165.987]","[5988.118087885, 0.0225, -0.1699, 0.999, -9.657, -1.34, 165.987]","[5988.218087925, 0.022, -0.1689, 0.998, -9.657, -1.346, 165.987]","[5988.318087983, 0.0229, -0.1709, 0.9976, -9.657, -1.346, 165.987]","[5988.418088078, 0.0264, -0.1709, 0.9941, -9.657, -1.346, 165.987]","[5988.518088117, 0.02, -0.1675, 0.999, -9.657, -1.346, 165.987]","[5988.618088194, 0.0229, -0.1675, 0.9995, -9.657, -1.34, 165.987]","[5988.718088307, 0.0244, -0.1709, 0.9961, -9.662, -1.34, 165.987]","[5988.818088347, 0.0249, -0.1685, 0.9951, -9.662, -1.34, 165.987]","[5988.91808846, 0.0234, -0.1665, 0.9971, -9.651, -1.335, 165.987]","[5989.018088537, 0.0205, -0.1704, 1.0015, -9.668, -1.335, 165.987]","[5989.118088539, 0.0273, -0.1758, 1.0005, -9.701, -1.335, 165.987]","[5989.21808856, 0.0254, -0.1758, 0.9961, -9.701, -1.34, 165.987]","[5989.318088581, 0.0283, -0.1602, 0.9951, -9.635, -1.357, 165.992]","[5989.418088695, 0.022, -0.1685, 1.0005, -9.63, -1.362, 165.992]","[5989.518088697, 0.0254, -0.1641, 0.9951, -9.624, -1.362, 165.992]","[5989.618088755, 0.0254, -0.1699, 0.9971, -9.63, -1.368, 165.992]","[5989.718088869, 0.0215, -0.1694, 0.9956, -9.613, -1.384, 165.992]","[5989.818088945, 0.0283, -0.1675, 0.9951, -9.591, -1.401, 165.998]","[5989.91808904, 0.0273, -0.1787, 0.9966, -9.619, -1.412, 166.009]","[5990.018089098, 0.0264, -0.1602, 0.9927, -9.575, -1.434, 166.025]","[5990.118089175, 0.0254, -0.1724, 1.0044, -9.58, -1.439, 166.031]","[5990.218089233, 0.0225, -0.1675, 0.9971, -9.575, -1.428, 166.02]","[5990.318089272, 0.0244, -0.168, 0.9946, -9.58, -1.428, 166.02]","[5990.418089293, 0.0254, -0.1675, 0.9961, -9.591, -1.428, 166.02]","[5990.518089314, 0.0264, -0.1689, 0.9966, -9.602, -1.428, 166.014]","[5990.618089335, 0.0249, -0.1685, 0.9961, -9.602, -1.428, 166.014]","[5990.718089411, 0.0254, -0.1704, 0.9976, -9.608, -1.428, 166.014]","[5990.818089488, 0.0244, -0.168, 0.9971, -9.608, -1.434, 166.014]","[5990.91808949, 0.0254, -0.1685, 0.9971, -9.624, -1.434, 166.014]","[5991.018089511, 0.0283, -0.1694, 0.9951, -9.63, -1.434, 166.014]","[5991.118089588, 0.0234, -0.168, 0.998, -9.641, -1.434, 166.014]","[5991.218089609, 0.0254, -0.1694, 0.9971, -9.641, -1.439, 166.014]","[5991.318089611, 0.0259, -0.1655, 0.9937, -9.641, -1.434, 166.014]","[5991.418089613, 0.0254, -0.1694, 0.9961, -9.651, -1.434, 166.014]","[5991.51808969, 0.0278, -0.1665, 0.9961, -9.651, -1.434, 166.014]","[5991.618089766, 0.0239, -0.168, 0.999, -9.651, -1.434, 166.014]","[5991.718089824, 0.022, -0.1709, 0.9995, -9.657, -1.439, 166.014]","[5991.818089901, 0.0259, -0.1709, 0.9941, -9.662, -1.439, 166.014]","[5991.918089903, 0.0269, -0.1699, 0.9956, -9.668, -1.439, 166.014]","[5992.018089924, 0.0249, -0.1689, 0.9985, -9.668, -1.439, 166.014]","[5992.118089964, 0.0254, -0.1694, 0.9971, -9.668, -1.439, 166.014]","[5992.21809004, 0.0259, -0.1719, 0.9976, -9.668, -1.439, 166.014]","[5992.318090154, 0.0259, -0.1719, 0.9966, -9.668, -1.439, 166.014]","[5992.418090212, 0.0225, -0.1719, 1.0024, -9.668, -1.439, 166.014]","[5992.518090307, 0.0298, -0.168, 0.9897, -9.673, -1.439, 166.014]","[5992.618090383, 0.0259, -0.1748, 0.9985, -9.706, -1.439, 166.014]","[5992.718090385, 0.0244, -0.1694, 0.9966, -9.69, -1.445, 166.014]","[5992.818090499, 0.0259, -0.1704, 0.9976, -9.69, -1.445, 166.014]","[5992.91809052, 0.0264, -0.1709, 0.9971, -9.69, -1.45, 166.014]"
"[5987.918087732, None, None, None, -9.657, -1.34, 165.987]","[5988.01808779, 0.0239, -0.1694, 0.9966, -9.657, -1.34, 165.987]","[5988.118087885, 0.0225, -0.1699, 0.999, -9.657, -1.34, 165.987]","[5988.218087925, 0.022, -0.1689, 0.998, -9.657, -1.346, 165.987]","[5988.318087983, 0.0229, -0.1709, 0.9976, -9.657, -1.346, 165.987]","[5988.418088078, 0.0264, -0.1709, 0.9941, -9.657, -1.346, 165.987]","[5988.518088117, 0.02, -0.1675, 0.999, -9.657, -1.346, 165.987]","[5988.618088194, 0.0229, -0.1675, 0.9995, -9.657, -1.34, 165.987]","[5988.718088307, 0.0244, -0.1709, 0.9961, -9.662, -1.34, 165.987]","[5988.818088347, 0.0249, -0.1685, 0.9951, -9.662, -1.34, 165.987]","[5988.91808846, 0.0234, -0.1665, 0.9971, -9.651, -1.335, 165.987]","[5989.018088537, 0.0205, -0.1704, 1.0015, -9.668, -1.335, 165.987]","[5989.118088539, 0.0273, -0.1758, 1.0005, -9.701, -1.335, 165.987]","[5989.21808856, 0.0254, -0.1758, 0.9961, -9.701, -1.34, 165.987]","[5989.318088581, 0.0283, -0.1602, 0.9951, -9.635, -1.357, 165.992]","[5989.418088695, 0.022, -0.1685, 1.0005, -9.63, -1.362, 165.992]","[5989.518088697, 0.0254, -0.1641, 0.9951, -9.624, -1.362, 165.992]","[5989.618088755, 0.0254, -0.1699, 0.9971, -9.63, -1.368, 165.992]","[5989.718088869, 0.0215, -0.1694, 0.9956, -9.613, -1.384, 165.992]","[5989.818088945, 0.0283, -0.1675, 0.9951, -9.591, -1.401, 165.998]","[5989.91808904, 0.0273, -0.1787, 0.9966, -9.619, -1.412, 166.009]","[5990.018089098, 0.0264, -0.1602, 0.9927, -9.575, -1.434, 166.025]","[5990.118089175, 0.0254, -0.1724, 1.0044, -9.58, -1.439, 166.031]","[5990.218089233, 0.0225, -0.1675, 0.9971, -9.575, -1.428, 166.02]","[5990.318089272, 0.0244, -0.168, 0.9946, -9.58, -1.428, 166.02]","[5990.418089293, 0.0254, -0.1675, 0.9961, -9.591, -1.428, 166.02]","[5990.518089314, 0.0264, -0.1689, 0.9966, -9.602, -1.428, 166.014]","[5990.618089335, 0.0249, -0.1685, 0.9961, -9.602, -1.428, 166.014]","[5990.718089411, 0.0254, -0.1704, 0.9976, -9.608, -1.428, 166.014]","[5990.818089488, 0.0244, -0.168, 0.9971, -9.608, -1.434, 166.014]","[5990.91808949, 0.0254, -0.1685, 0.9971, -9.624, -1.434, 166.014]","[5991.018089511, 0.0283, -0.1694, 0.9951, -9.63, -1.434, 166.014]","[5991.118089588, 0.0234, -0.168, 0.998, -9.641, -1.434, 166.014]","[5991.218089609, 0.0254, -0.1694, 0.9971, -9.641, -1.439, 166.014]","[5991.318089611, 0.0259, -0.1655, 0.9937, -9.641, -1.434, 166.014]","[5991.418089613, 0.0254, -0.1694, 0.9961, -9.651, -1.434, 166.014]","[5991.51808969, 0.0278, -0.1665, 0.9961, -9.651, -1.434, 166.014]","[5991.618089766, 0.0239, -0.168, 0.999, -9.651, -1.434, 166.014]","[5991.718089824, 0.022, -0.1709, 0.9995, -9.657, -1.439, 166.014]","[5991.818089901, 0.0259, -0.1709, 0.9941, -9.662, -1.439, 166.014]","[5991.918089903, 0.0269, -0.1699, 0.9956, -9.668, -1.439, 166.014]","[5992.018089924, 0.0249, -0.1689, 0.9985, -9.668, -1.439, 166.014]","[5992.118089964, 0.0254, -0.1694, 0.9971, -9.668, -1.439, 166.014]","[5992.21809004, 0.0259, -0.1719, 0.9976, -9.668, -1.439, 166.014]","[5992.318090154, 0.0259, -0.1719, 0.9966, -9.668, -1.439, 166.014]","[5992.418090212, 0.0225, -0.1719, 1.0024, -9.668, -1.439, 166.014]","[5992.518090307, 0.0298, -0.168, 0.9897, -9.673, -1.439, 166.014]","[5992.618090383, 0.0259, -0.1748, 0.9985, -9.706, -1.439, 166.014]","[5992.718090385, 0.0244, -0.1694, 0.9966, -9.69, -1.445, 166.014]","[5992.818090499, 0.0259, -0.1704, 0.9976, -9.69, -1.445, 166.014]","[5992.91809052, 0.0264, -0.1709, 0.9971, -9.69, -1.45, 166.014]","[5993.018090559, 0.0278, -0.1704, 0.9956, -9.684, -1.45, 166.014]"
"[5987.918087732, None, None, None, -9.657, -1.34, 165.987]","[5988.01808779, 0.0239, -0.1694, 0.9966, -9.657, -1.34, 165.987]","[5988.118087885, 0.0225, -0.1699, 0.999, -9.657, -1.34, 165.987]","[5988.218087925, 0.022, -0.1689, 0.998, -9.657, -1.346, 165.987]","[5988.318087983, 0.0229, -0.1709, 0.9976, -9.657, -1.346, 165.987]","[5988.418088078, 0.0264, -0.1709, 0.9941, -9.657, -1.346, 165.987]","[5988.518088117, 0.02, -0.1675, 0.999, -9.657, -1.346, 165.987]","[5988.618088194, 0.0229, -0.1675, 0.9995, -9.657, -1.34, 165.987]","[5988.718088307, 0.0244, -0.1709, 0.9961, -9.662, -1.34, 165.987]","[5988.818088347, 0.0249, -0.1685, 0.9951, -9.662, -1.34, 165.987]","[5988.91808846, 0.0234, -0.1665, 0.9971, -9.651, -1.335, 165.987]","[5989.018088537, 0.0205, -0.1704, 1.0015, -9.668, -1.335, 165.987]","[5989.118088539, 0.0273, -0.1758, 1.0005, -9.701, -1.335, 165.987]","[5989.21808856, 0.0254, -0.1758, 0.9961, -9.701, -1.34, 165.987]","[5989.318088581, 0.0283, -0.1602, 0.9951, -9.635, -1.357, 165.992]","[5989.418088695, 0.022, -0.1685, 1.0005, -9.63, -1.362, 165.992]","[5989.518088697, 0.0254, -0.1641, 0.9951, -9.624, -1.362, 165.992]","[5989.618088755, 0.0254, -0.1699, 0.9971, -9.63, -1.368, 165.992]","[5989.718088869, 0.0215, -0.1694, 0.9956, -9.613, -1.384, 165.992]","[5989.818088945, 0.0283, -0.1675, 0.9951, -9.591, -1.401, 165.998]","[5989.91808904, 0.0273, -0.1787, 0.9966, -9.619, -1.412, 166.009]","[5990.018089098, 0.0264, -0.1602, 0.9927, -9.575, -1.434, 166.025]","[5990.118089175, 0.0254, -0.1724, 1.0044, -9.58, -1.439, 166.031]","[5990.218089233, 0.0225, -0.1675, 0.9971, -9.575, -1.428, 166.02]","[5990.318089272, 0.0244, -0.168, 0.9946, -9.58, -1.428, 166.02]","[5990.418089293, 0.0254, -0.1675, 0.9961, -9.591, -1.428, 166.02]","[5990.518089314, 0.0264, -0.1689, 0.9966, -9.602, -1.428, 166.014]","[5990.618089335, 0.0249, -0.1685, 0.9961, -9.602, -1.428, 166.014]","[5990.718089411, 0.0254, -0.1704, 0.9976, -9.608, -1.428, 166.014]","[5990.818089488, 0.0244, -0.168, 0.9971, -9.608, -1.434, 166.014]","[5990.91808949, 0.0254, -0.1685, 0.9971, -9.624, -1.434, 166.014]","[5991.018089511, 0.0283, -0.1694, 0.9951, -9.63, -1.434, 166.014]","[5991.118089588, 0.0234, -0.168, 0.998, -9.641, -1.434, 166.014]","[5991.218089609, 0.0254, -0.1694, 0.9971, -9.641, -1.439, 166.014]","[5991.318089611, 0.0259, -0.1655, 0.9937, -9.641, -1.434, 166.014]","[5991.418089613, 0.0254, -0.1694, 0.9961, -9.651, -1.434, 166.014]","[5991.51808969, 0.0278, -0.1665, 0.9961, -9.651, -1.434, 166.014]","[5991.618089766, 0.0239, -0.168, 0.999, -9.651, -1.434, 166.014]","[5991.718089824, 0.022, -0.1709, 0.9995, -9.657, -1.439, 166.014]","[5991.818089901, 0.0259, -0.1709, 0.9941, -9.662, -1.439, 166.014]","[5991.918089903, 0.0269, -0.1699, 0.9956, -9.668, -1.439, 166.014]","[5992.018089924, 0.0249, -0.1689, 0.9985, -9.668, -1.439, 166.014]","[5992.118089964, 0.0254, -0.1694, 0.9971, -9.668, -1.439, 166.014]","[5992.21809004, 0.0259, -0.1719, 0.9976, -9.668, -1.439, 166.014]","[5992.318090154, 0.0259, -0.1719, 0.9966, -9.668, -1.439, 166.014]","[5992.418090212, 0.0225, -0.1719, 1.0024, -9.668, -1.439, 166.014]","[5992.518090307, 0.0298, -0.168, 0.9897, -9.673, -1.439, 166.014]","[5992.618090383, 0.0259, -0.1748, 0.9985, -9.706, -1.439, 166.014]","[5992.718090385, 0.0244, -0.1694, 0.9966, -9.69, -1.445, 166.014]","[5992.818090499, 0.0259, -0.1704, 0.9976, -9.69, -1.445, 166.014]","[5992.91809052, 0.0264, -0.1709, 0.9971, -9.69, -1.45, 166.014]","[5993.018090559, 0.0278, -0.1704, 0.9956, -9.684, -1.45, 166.014]","[5993.118090617, 0.0269, -0.1738, 0.9971, -9.701, -1.456, 166.014]"
"[5987.918087732, None, None, None, -9.657, -1.34, 165.987]","[5988.01808779, 0.0239, -0.1694, 0.9966, -9.657, -1.34, 165.987]","[5988.118087885, 0.0225, -0.1699, 0.999, -9.657, -1.34, 165.987]","[5988.218087925, 0.022, -0.1689, 0.998, -9.657, -1.346, 165.987]","[5988.318087983, 0.0229, -0.1709, 0.9976, -9.657, -1.346, 165.987]","[5988.418088078, 0.0264, -0.1709, 0.9941, -9.657, -1.346, 165.987]","[5988.518088117, 0.02, -0.1675, 0.999, -9.657, -1.346, 165.987]","[5988.618088194, 0.0229, -0.1675, 0.9995, -9.657, -1.34, 165.987]","[5988.718088307, 0.0244, -0.1709, 0.9961, -9.662, -1.34, 165.987]","[5988.818088347, 0.0249, -0.1685, 0.9951, -9.662, -1.34, 165.987]","[5988.91808846, 0.0234, -0.1665, 0.9971, -9.651, -1.335, 165.987]","[5989.018088537, 0.0205, -0.1704, 1.0015, -9.668, -1.335, 165.987]","[5989.118088539, 0.0273, -0.1758, 1.0005, -9.701, -1.335, 165.987]","[5989.21808856, 0.0254, -0.1758, 0.9961, -9.701, -1.34, 165.987]","[5989.318088581, 0.0283, -0.1602, 0.9951, -9.635, -1.357, 165.992]","[5989.418088695, 0.022, -0.1685, 1.0005, -9.63, -1.362, 165.992]","[5989.518088697, 0.0254, -0.1641, 0.9951, -9.624, -1.362, 165.992]","[5989.618088755, 0.0254, -0.1699, 0.9971, -9.63, -1.368, 165.992]","[5989.718088869, 0.0215, -0.1694, 0.9956, -9.613, -1.384, 165.992]","[5989.818088945, 0.0283, -0.1675, 0.9951, -9.591, -1.401, 165.998]","[5989.91808904, 0.0273, -0.1787, 0.9966, -9.619, -1.412, 166.009]","[5990.018089098, 0.0264, -0.1602, 0.9927, -9.575, -1.434, 166.025]","[5990.118089175, 0.0254, -0.1724, 1.0044, -9.58, -1.439, 166.031]","[5990.218089233, 0.0225, -0.1675, 0.9971, -9.575, -1.428, 166.02]","[5990.318089272, 0.0244, -0.168, 0.9946, -9.58, -1.428, 166.02]","[5990.418089293, 0.0254, -0.1675, 0.9961, -9.591, -1.428, 166.02]","[5990.518089314, 0.0264, -0.1689, 0.9966, -9.602, -1.428, 166.014]","[5990.618089335, 0.0249, -0.1685, 0.9961, -9.602, -1.428, 166.014]","[5990.718089411, 0.0254, -0.1704, 0.9976, -9.608, -1.428, 166.014]","[5990.818089488, 0.0244, -0.168, 0.9971, -9.608, -1.434, 166.014]","[5990.91808949, 0.0254, -0.1685, 0.9971, -9.624, -1.434, 166.014]","[5991.018089511, 0.0283, -0.1694, 0.9951, -9.63, -1.434, 166.014]","[5991.118089588, 0.0234, -0.168, 0.998, -9.641, -1.434, 166.014]","[5991.218089609, 0.0254, -0.1694, 0.9971, -9.641, -1.439, 166.014]","[5991.318089611, 0.0259, -0.1655, 0.9937, -9.641, -1.434, 166.014]","[5991.418089613, 0.0254, -0.1694, 0.9961, -9.651, -1.434, 166.014]","[5991.51808969, 0.0278, -0.1665, 0.9961, -9.651, -1.434, 166.014]","[5991.618089766, 0.0239, -0.168, 0.999, -9.651, -1.434, 166.014]","[5991.718089824, 0.022, -0.1709, 0.9995, -9.657, -1.439, 166.014]","[5991.818089901, 0.0259, -0.1709, 0.9941, -9.662, -1.439, 166.014]","[5991.918089903, 0.0269, -0.1699, 0.9956, -9.668, -1.439, 166.014]","[5992.018089924, 0.0249, -0.1689, 0.9985, -9.668, -1.439, 166.014]","[5992.118089964, 0.0254, -0.1694, 0.9971, -9.668, -1.439, 166.014]","[5992.21809004, 0.0259, -0.1719, 0.9976, -9.668, -1.439, 166.014]","[5992.318090154, 0.0259, -0.1719, 0.9966, -9.668, -1.439, 166.014]","[5992.418090212, 0.0225, -0.1719, 1.0024, -9.668, -1.439, 166.014]","[5992.518090307, 0.0298, -0.168, 0.9897, -9.673, -1.439, 166.014]","[5992.618090383, 0.0259, -0.1748, 0.9985, -9.706, -1.439, 166.014]","[5992.718090385, 0.0244, -0.1694, 0.9966, -9.69, -1.445, 166.014]","[5992.818090499, 0.0259, -0.1704, 0.9976, -9.69, -1.445, 166.014]","[5992.91809052, 0.0264, -0.1709, 0.9971, -9.69, -1.45, 166.014]","[5993.018090559, 0.0278, -0.1704, 0.9956, -9.684, -1.45, 166.014]","[5993.118090617, 0.0269, -0.1738, 0.9971, -9.701, -1.456, 166.014]","[5993.218090657, 0.0249, -0.1699, 0.9976, -9.701, -1.456, 166.014]"
"[5987.918087732, None, None, None, -9.657, -1.34, 165.987]","[5988.01808779, 0.0239, -0.1694, 0.9966, -9.657, -1.34, 165.987]","[5988.118087885, 0.0225, -0.1699, 0.999, -9.657, -1.34, 165.987]","[5988.218087925, 0.022, -0.1689, 0.998, -9.657, -1.346, 165.987]","[5988.318087983, 0.0229, -0.1709, 0.9976, -9.657, -1.346, 165.987]","[5988.418088078, 0.0264, -0.1709, 0.9941, -9.657, -1.346, 165.987]","[5988.518088117, 0.02, -0.1675, 0.999, -9.657, -1.346, 165.987]","[5988.618088194, 0.0229, -0.1675, 0.9995, -9.657, -1.34, 165.987]","[5988.718088307, 0.0244, -0.1709, 0.9961, -9.662, -1.34, 165.987]","[5988.818088347, 0.0249, -0.1685, 0.9951, -9.662, -1.34, 165.987]","[5988.91808846, 0.0234, -0.1665, 0.9971, -9.651, -1.335, 165.987]","[5989.018088537, 0.0205, -0.1704, 1.0015, -9.668, -1.335, 165.987]","[5989.118088539, 0.0273, -0.1758, 1.0005, -9.701, -1.335, 165.987]","[5989.21808856, 0.0254, -0.1758, 0.9961, -9.701, -1.34, 165.987]","[5989.318088581, 0.0283, -0.1602, 0.9951, -9.635, -1.357, 165.992]","[5989.418088695, 0.022, -0.1685, 1.0005, -9.63, -1.362, 165.992]","[5989.518088697, 0.0254, -0.1641, 0.9951, -9.624, -1.362, 165.992]","[5989.618088755, 0.0254, -0.1699, 0.9971, -9.63, -1.368, 165.992]","[5989.718088869, 0.0215, -0.1694, 0.9956, -9.613, -1.384, 165.992]","[5989.818088945, 0.0283, -0.1675, 0.9951, -9.591, -1.401, 165.998]","[5989.91808904, 0.0273, -0.1787, 0.9966, -9.619, -1.412, 166.009]","[5990.018089098, 0.0264, -0.1602, 0.9927, -9.575, -1.434, 166.025]","[5990.118089175, 0.0254, -0.1724, 1.0044, -9.58, -1.439, 166.031]","[5990.218089233, 0.0225, -0.1675, 0.9971, -9.575, -1.428, 166.02]","[5990.318089272, 0.0244, -0.168, 0.9946, -9.58, -1.428, 166.02]","[5990.418089293, 0.0254, -0.1675, 0.9961, -9.591, -1.428, 166.02]","[5990.518089314, 0.0264, -0.1689, 0.9966, -9.602, -1.428, 166.014]","[5990.618089335, 0.0249, -0.1685, 0.9961, -9.602, -1.428, 166.014]","[5990.718089411, 0.0254, -0.1704, 0.9976, -9.608, -1.428, 166.014]","[5990.818089488, 0.0244, -0.168, 0.9971, -9.608, -1.434, 166.014]","[5990.91808949, 0.0254, -0.1685, 0.9971, -9.624, -1.434, 166.014]","[5991.018089511, 0.0283, -0.1694, 0.9951, -9.63, -1.434, 166.014]","[5991.118089588, 0.0234, -0.168, 0.998, -9.641, -1.434, 166.014]","[5991.218089609, 0.0254, -0.1694, 0.9971, -9.641, -1.439, 166.014]","[5991.318089611, 0.0259, -0.1655, 0.9937, -9.641, -1.434, 166.014]","[5991.418089613, 0.0254, -0.1694, 0.9961, -9.651, -1.434, 166.014]","[5991.51808969, 0.0278, -0.1665, 0.9961, -9.651, -1.434, 166.014]","[5991.618089766, 0.0239, -0.168, 0.999, -9.651, -1.434, 166.014]","[5991.718089824, 0.022, -0.1709, 0.9995, -9.657, -1.439, 166.014]","[5991.818089901, 0.0259, -0.1709, 0.9941, -9.662, -1.439, 166.014]","[5991.918089903, 0.0269, -0.1699, 0.9956, -9.668, -1.439, 166.014]","[5992.018089924, 0.0249, -0.1689, 0.9985, -9.668, -1.439, 166.014]","[5992.118089964, 0.0254, -0.1694, 0.9971, -9.668, -1.439, 166.014]","[5992.21809004, 0.0259, -0.1719, 0.9976, -9.668, -1.439, 166.014]","[5992.318090154, 0.0259, -0.1719, 0.9966, -9.668, -1.439, 166.014]","[5992.418090212, 0.0225, -0.1719, 1.0024, -9.668, -1.439, 166.014]","[5992.518090307, 0.0298, -0.168, 0.9897, -9.673, -1.439, 166.014]","[5992.618090383, 0.0259, -0.1748, 0.9985, -9.706, -1.439, 166.014]","[5992.718090385, 0.0244, -0.1694, 0.9966, -9.69, -1.445, 166.014]","[5992.818090499, 0.0259, -0.1704, 0.9976, -9.69, -1.445, 166.014]","[5992.91809052, 0.0264, -0.1709, 0.9971, -9.69, -1.45, 166.014]","[5993.018090559, 0.0278, -0.1704, 0.9956, -9.684, -1.45, 166.014]","[5993.118090617, 0.0269, -0.1738, 0.9971, -9.701, -1.456, 166.014]","[5993.218090657, 0.0249, -0.1699, 0.9976, -9.701, -1.456, 166.014]","[5993.318090678, 0.0254, -0.1704, 0.9961, -9.701, -1.456, 166.014]"
"[5987.918087732, None, None, None, -9.657, -1.34, 165.987]","[5988.01808779, 0.0239, -0.1694, 0.9966, -9.657, -1.34, 165.987]","[5988.118087885, 0.0225, -0.1699, 0.999, -9.657, -1.34, 165.987]","[5988.218087925, 0.022, -0.1689, 0.998, -9.657, -1.346, 165.987]","[5988.318087983, 0.0229, -0.1709, 0.9976, -9.657, -1.346, 165.987]","[5988.418088078, 0.0264, -0.1709, 0.9941, -9.657, -1.346, 165.987]","[5988.518088117, 0.02, -0.1675, 0.999, -9.657, -1.346, 165.987]","[5988.618088194, 0.0229, -0.1675, 0.9995, -9.657, -1.34, 165.987]","[5988.718088307, 0.0244, -0.1709, 0.9961, -9.662, -1.34, 165.987]","[5988.818088347, 0.0249, -0.1685, 0.9951, -9.662, -1.34, 165.987]","[5988.91808846, 0.0234, -0.1665, 0.9971, -9.651, -1.335, 165.987]","[5989.018088537, 0.0205, -0.1704, 1.0015, -9.668, -1.335, 165.987]","[5989.118088539, 0.0273, -0.1758, 1.0005, -9.701, -1.335, 165.987]","[5989.21808856, 0.0254, -0.1758, 0.9961, -9.701, -1.34, 165.987]","[5989.318088581, 0.0283, -0.1602, 0.9951, -9.635, -1.357, 165.992]","[5989.418088695, 0.022, -0.1685, 1.0005, -9.63, -1.362, 165.992]","[5989.518088697, 0.0254, -0.1641, 0.9951, -9.624, -1.362, 165.992]","[5989.618088755, 0.0254, -0.1699, 0.9971, -9.63, -1.368, 165.992]","[5989.718088869, 0.0215, -0.1694, 0.9956, -9.613, -1.384, 165.992]","[5989.818088945, 0.0283, -0.1675, 0.9951, -9.591, -1.401, 165.998]","[5989.91808904, 0.0273, -0.1787, 0.9966, -9.619, -1.412, 166.009]","[5990.018089098, 0.0264, -0.1602, 0.9927, -9.575, -1.434, 166.025]","[5990.118089175, 0.0254, -0.1724, 1.0044, -9.58, -1.439, 166.031]","[5990.218089233, 0.0225, -0.1675, 0.9971, -9.575, -1.428, 166.02]","[5990.318089272, 0.0244, -0.168, 0.9946, -9.58, -1.428, 166.02]","[5990.418089293, 0.0254, -0.1675, 0.9961, -9.591, -1.428, 166.02]","[5990.518089314, 0.0264, -0.1689, 0.9966, -9.602, -1.428, 166.014]","[5990.618089335, 0.0249, -0.1685, 0.9961, -9.602, -1.428, 166.014]","[5990.718089411, 0.0254, -0.1704, 0.9976, -9.608, -1.428, 166.014]","[5990.818089488, 0.0244, -0.168, 0.9971, -9.608, -1.434, 166.014]","[5990.91808949, 0.0254, -0.1685, 0.9971, -9.624, -1.434, 166.014]","[5991.018089511, 0.0283, -0.1694, 0.9951, -9.63, -1.434, 166.014]","[5991.118089588, 0.0234, -0.168, 0.998, -9.641, -1.434, 166.014]","[5991.218089609, 0.0254, -0.1694, 0.9971, -9.641, -1.439, 166.014]","[5991.318089611, 0.0259, -0.1655, 0.9937, -9.641, -1.434, 166.014]","[5991.418089613, 0.0254, -0.1694, 0.9961, -9.651, -1.434, 166.014]","[5991.51808969, 0.0278, -0.1665, 0.9961, -9.651, -1.434, 166.014]","[5991.618089766, 0.0239, -0.168, 0.999, -9.651, -1.434, 166.014]","[5991.718089824, 0.022, -0.1709, 0.9995, -9.657, -1.439, 166.014]","[5991.818089901, 0.0259, -0.1709, 0.9941, -9.662, -1.439, 166.014]","[5991.918089903, 0.0269, -0.1699, 0.9956, -9.668, -1.439, 166.014]","[5992.018089924, 0.0249, -0.1689, 0.9985, -9.668, -1.439, 166.014]","[5992.118089964, 0.0254, -0.1694, 0.9971, -9.668, -1.439, 166.014]","[5992.21809004, 0.0259, -0.1719, 0.9976, -9.668, -1.439, 166.014]","[5992.318090154, 0.0259, -0.1719, 0.9966, -9.668, -1.439, 166.014]","[5992.418090212, 0.0225, -0.1719, 1.0024, -9.668, -1.439, 166.014]","[5992.518090307, 0.0298, -0.168, 0.9897, -9.673, -1.439, 166.014]","[5992.618090383, 0.0259, -0.1748, 0.9985, -9.706, -1.439, 166.014]","[5992.718090385, 0.0244, -0.1694, 0.9966, -9.69, -1.445, 166.014]","[5992.818090499, 0.0259, -0.1704, 0.9976, -9.69, -1.445, 166.014]","[5992.91809052, 0.0264, -0.1709, 0.9971, -9.69, -1.45, 166.014]","[5993.018090559, 0.0278, -0.1704, 0.9956, -9.684, -1.45, 166.014]","[5993.118090617, 0.0269, -0.1738, 0.9971, -9.701, -1.456, 166.014]","[5993.218090657, 0.0249, -0.1699, 0.9976, -9.701, -1.456, 166.014]","[5993.318090678, 0.0254, -0.1704, 0.9961, -9.701, -1.456, 166.014]","[5993.418090736, 0.0249, -0.1733, 0.9976, -9.701, -1.456, 166.014]"
"[5987.918087732, None, None, None, -9.657, -1.34, 165.987]","[5988.01808779, 0.0239, -0.1694, 0.9966, -9.657, -1.34, 165.987]","[5988.118087885, 0.0225, -0.1699, 0.999, -9.657, -1.34, 165.987]","[5988.218087925, 0.022, -0.1689, 0.998, -9.657, -1.346, 165.987]","[5988.318087983, 0.0229, -0.1709, 0.9976, -9.657, -1.346, 165.987]","[5988.418088078, 0.0264, -0.1709, 0.9941, -9.657, -1.346, 165.987]","[5988.518088117, 0.02, -0.1675, 0.999, -9.657, -1.346, 165.987]","[5988.618088194, 0.0229, -0.1675, 0.9995, -9.657, -1.34, 165.987]","[5988.718088307, 0.0244, -0.1709, 0.9961, -9.662, -1.34, 165.987]","[5988.818088347, 0.0249, -0.1685, 0.9951, -9.662, -1.34, 165.987]","[5988.91808846, 0.0234, -0.1665, 0.9971, -9.651, -1.335, 165.987]","[5989.018088537, 0.0205, -0.1704, 1.0015, -9.668, -1.335, 165.987]","[5989.118088539, 0.0273, -0.1758, 1.0005, -9.701, -1.335, 165.987]","[5989.21808856, 0.0254, -0.1758, 0.9961, -9.701, -1.34, 165.987]","[5989.318088581, 0.0283, -0.1602, 0.9951, -9.635, -1.357, 165.992]","[5989.418088695, 0.022, -0.1685, 1.0005, -9.63, -1.362, 165.992]","[5989.518088697, 0.0254, -0.1641, 0.9951, -9.624, -1.362, 165.992]","[5989.618088755, 0.0254, -0.1699, 0.9971, -9.63, -1.368, 165.992]","[5989.718088869, 0.0215, -0.1694, 0.9956, -9.613, -1.384, 165.992]","[5989.818088945, 0.0283, -0.1675, 0.9951, -9.591, -1.401, 165.998]","[5989.91808904, 0.0273, -0.1787, 0.9966, -9.619, -1.412, 166.009]","[5990.018089098, 0.0264, -0.1602, 0.9927, -9.575, -1.434, 166.025]","[5990.118089175, 0.0254, -0.1724, 1.0044, -9.58, -1.439, 166.031]","[5990.218089233, 0.0225, -0.1675, 0.9971, -9.575, -1.428, 166.02]","[5990.318089272, 0.0244, -0.168, 0.9946, -9.58, -1.428, 166.02]","[5990.418089293, 0.0254, -0.1675, 0.9961, -9.591, -1.428, 166.02]","[5990.518089314, 0.0264, -0.1689, 0.9966, -9.602, -1.428, 166.014]","[5990.618089335, 0.0249, -0.1685, 0.9961, -9.602, -1.428, 166.014]","[5990.718089411, 0.0254, -0.1704, 0.9976, -9.608, -1.428, 166.014]","[5990.818089488, 0.0244, -0.168, 0.9971, -9.608, -1.434, 166.014]","[5990.91808949, 0.0254, -0.1685, 0.9971, -9.624, -1.434, 166.014]","[5991.018089511, 0.0283, -0.1694, 0.9951, -9.63, -1.434, 166.014]","[5991.118089588, 0.0234, -0.168, 0.998, -9.641, -1.434, 166.014]","[5991.218089609, 0.0254, -0.1694, 0.9971, -9.641, -1.439, 166.014]","[5991.318089611, 0.0259, -0.1655, 0.9937, -9.641, -1.434, 166.014]","[5991.418089613, 0.0254, -0.1694, 0.9961, -9.651, -1.434, 166.014]","[5991.51808969, 0.0278, -0.1665, 0.9961, -9.651, -1.434, 166.014]","[5991.618089766, 0.0239, -0.168, 0.999, -9.651, -1.434, 166.014]","[5991.718089824, 0.022, -0.1709, 0.9995, -9.657, -1.439, 166.014]","[5991.818089901, 0.0259, -0.1709, 0.9941, -9.662, -1.439, 166.014]","[5991.918089903, 0.0269, -0.1699, 0.9956, -9.668, -1.439, 166.014]","[5992.018089924, 0.0249, -0.1689, 0.9985, -9.668, -1.439, 166.014]","[5992.118089964, 0.0254, -0.1694, 0.9971, -9.668, -1.439, 166.014]","[5992.21809004, 0.0259, -0.1719, 0.9976, -9.668, -1.439, 166.014]","[5992.318090154, 0.0259, -0.1719, 0.9966, -9.668, -1.439, 166.014]","[5992.418090212, 0.0225, -0.1719, 1.0024, -9.668, -1.439, 166.014]","[5992.518090307, 0.0298, -0.168, 0.9897, -9.673, -1.439, 166.014]","[5992.618090383, 0.0259, -0.1748, 0.9985, -9.706, -1.439, 166.014]","[5992.718090385, 0.0244, -0.1694, 0.9966, -9.69, -1.445, 166.014]","[5992.818090499, 0.0259, -0.1704, 0.9976, -9.69, -1.445, 166.014]","[5992.91809052, 0.0264, -0.1709, 0.9971, -9.69, -1.45, 166.014]","[5993.018090559, 0.0278, -0.1704, 0.9956, -9.684, -1.45, 166.014]","[5993.118090617, 0.0269, -0.1738, 0.9971, -9.701, -1.456, 166.014]","[5993.218090657, 0.0249, -0.1699, 0.9976, -9.701, -1.456, 166.014]","[5993.318090678, 0.0254, -0.1704, 0.9961, -9.701, -1.456, 166.014]","[5993.418090736, 0.0249, -0.1733, 0.9976, -9.701, -1.456, 166.014]","[5993.518090775, 0.0254, -0.1704, 0.9966, -9.69, -1.456, 166.014]"
"[5987.918087732, None, None, None, -9.657, -1.34, 165.987]","[5988.01808779, 0.0239, -0.1694, 0.9966, -9.657, -1.34, 165.987]","[5988.118087885, 0.0225, -0.1699, 0.999, -9.657, -1.34, 165.987]","[5988.218087925, 0.022, -0.1689, 0.998, -9.657, -1.346, 165.987]","[5988.318087983, 0.0229, -0.1709, 0.9976, -9.657, -1.346, 165.987]","[5988.418088078, 0.0264, -0.1709, 0.9941, -9.657, -1.346, 165.987]","[5988.518088117, 0.02, -0.1675, 0.999, -9.657, -1.346, 165.987]","[5988.618088194, 0.0229, -0.1675, 0.9995, -9.657, -1.34, 165.987]","[5988.718088307, 0.0244, -0.1709, 0.9961, -9.662, -1.34, 165.987]","[5988.818088347, 0.0249, -0.1685, 0.9951, -9.662, -1.34, 165.987]","[5988.91808846, 0.0234, -0.1665, 0.9971, -9.651, -1.335, 165.987]","[5989.018088537, 0.0205, -0.1704, 1.0015, -9.668, -1.335, 165.987]","[5989.118088539, 0.0273, -0.1758, 1.0005, -9.701, -1.335, 165.987]","[5989.21808856, 0.0254, -0.1758, 0.9961, -9.701, -1.34, 165.987]","[5989.318088581, 0.0283, -0.1602, 0.9951, -9.635, -1.357, 165.992]","[5989.418088695, 0.022, -0.1685, 1.0005, -9.63, -1.362, 165.992]","[5989.518088697, 0.0254, -0.1641, 0.9951, -9.624, -1.362, 165.992]","[5989.618088755, 0.0254, -0.1699, 0.9971, -9.63, -1.368, 165.992]","[5989.718088869, 0.0215, -0.1694, 0.9956, -9.613, -1.384, 165.992]","[5989.818088945, 0.0283, -0.1675, 0.9951, -9.591, -1.401, 165.998]","[5989.91808904, 0.0273, -0.1787, 0.9966, -9.619, -1.412, 166.009]","[5990.018089098, 0.0264, -0.1602, 0.9927, -9.575, -1.434, 166.025]","[5990.118089175, 0.0254, -0.1724, 1.0044, -9.58, -1.439, 166.031]","[5990.218089233, 0.0225, -0.1675, 0.9971, -9.575, -1.428, 166.02]","[5990.318089272, 0.0244, -0.168, 0.9946, -9.58, -1.428, 166.02]","[5990.418089293, 0.0254, -0.1675, 0.9961, -9.591, -1.428, 166.02]","[5990.518089314, 0.0264, -0.1689, 0.9966, -9.602, -1.428, 166.014]","[5990.618089335, 0.0249, -0.1685, 0.9961, -9.602, -1.428, 166.014]","[5990.718089411, 0.0254, -0.1704, 0.9976, -9.608, -1.428, 166.014]","[5990.818089488, 0.0244, -0.168, 0.9971, -9.608, -1.434, 166.014]","[5990.91808949, 0.0254, -0.1685, 0.9971, -9.624, -1.434, 166.014]","[5991.018089511, 0.0283, -0.1694, 0.9951, -9.63, -1.434, 166.014]","[5991.118089588, 0.0234, -0.168, 0.998, -9.641, -1.434, 166.014]","[5991.218089609, 0.0254, -0.1694, 0.9971, -9.641, -1.439, 166.014]","[5991.318089611, 0.0259, -0.1655, 0.9937, -9.641, -1.434, 166.014]","[5991.418089613, 0.0254, -0.1694, 0.9961, -9.651, -1.434, 166.014]","[5991.51808969, 0.0278, -0.1665, 0.9961, -9.651, -1.434, 166.014]","[5991.618089766, 0.0239, -0.168, 0.999, -9.651, -1.434, 166.014]","[5991.718089824, 0.022, -0.1709, 0.9995, -9.657, -1.439, 166.014]","[5991.818089901, 0.0259, -0.1709, 0.9941, -9.662, -1.439, 166.014]","[5991.918089903, 0.0269, -0.1699, 0.9956, -9.668, -1.439, 166.014]","[5992.018089924, 0.0249, -0.1689, 0.9985, -9.668, -1.439, 166.014]","[5992.118089964, 0.0254, -0.1694, 0.9971, -9.668, -1.439, 166.014]","[5992.21809004, 0.0259, -0.1719, 0.9976, -9.668, -1.439, 166.014]","[5992.318090154, 0.0259, -0.1719, 0.9966, -9.668, -1.439, 166.014]","[5992.418090212, 0.0225, -0.1719, 1.0024, -9.668, -1.439, 166.014]","[5992.518090307, 0.0298, -0.168, 0.9897, -9.673, -1.439, 166.014]","[5992.618090383, 0.0259, -0.1748, 0.9985, -9.706, -1.439, 166.014]","[5992.718090385, 0.0244, -0.1694, 0.9966, -9.69, -1.445, 166.014]","[5992.818090499, 0.0259, -0.1704, 0.9976, -9.69, -1.445, 166.014]","[5992.91809052, 0.0264, -0.1709, 0.9971, -9.69, -1.45, 166.014]","[5993.018090559, 0.0278, -0.1704, 0.9956, -9.684, -1.45, 166.014]","[5993.118090617, 0.0269, -0.1738, 0.9971, -9.701, -1.456, 166.014]","[5993.218090657, 0.0249, -0.1699, 0.9976, -9.701, -1.456, 166.014]","[5993.318090678, 0.0254, -0.1704, 0.9961, -9.701, -1.456, 166.014]","[5993.418090736, 0.0249, -0.1733, 0.9976, -9.701, -1.456, 166.014]","[5993.518090775, 0.0254, -0.1704, 0.9966, -9.69, -1.456, 166.014]","[5993.618090833, 0.0259, -0.1704, 0.9961, -9.662, -1.461, 166.014]"
