Time,AccX,AccY,AccZ,AngleX,AngleY,AngleZ
1144.073051582,0.0181,0.0127,1.0166,1.165,-1.401,131.583
1144.173051646,0.0283,0.0229,1.0088,1.165,-1.406,131.583
1144.273051711,0.0195,0.0195,1.0122,1.165,-1.406,131.583
1144.373051739,0.0259,0.022,1.0103,1.165,-1.412,131.583
1144.473051785,0.0312,0.0254,1.0088,1.165,-1.417,131.583
1144.573051869,0.0225,0.02,1.0117,1.165,-1.417,131.583
1144.673056637,0.0215,0.0171,1.0137,1.165,-1.417,131.583
1144.773056683,0.0273,0.022,1.0112,1.159,-1.417,131.583
1144.873056739,0.0259,0.021,1.0122,1.159,-1.417,131.583
1144.973056825,0.0225,0.019,1.0132,1.159,-1.417,131.583
1145.073056893,0.0264,0.022,1.0112,1.159,-1.423,131.583
1145.173056942,0.0269,0.0215,1.0107,1.159,-1.423,131.583
1145.273056973,0.0244,0.019,1.0132,1.159,-1.423,131.583
1145.373057023,0.0239,0.02,1.0127,1.165,-1.423,131.583
1145.473057072,0.0254,0.022,1.0103,1.165,-1.423,131.583
1145.573057122,0.0239,0.0205,1.0122,1.165,-1.423,131.583
1145.673057171,0.0239,0.02,1.0117,1.165,-1.423,131.583
1145.773057239,0.0239,0.019,1.0132,1.165,-1.417,131.583
1145.873057279,0.0259,0.0205,1.0112,1.165,-1.417,131.583
1145.973057295,0.0244,0.0215,1.0117,1.165,-1.423,131.583
1146.073057385,0.0239,0.019,1.0127,1.165,-1.423,131.583
1146.173057419,0.0254,0.0205,1.0117,1.165,-1.417,131.583
1146.273057472,0.0254,0.022,1.0122,1.165,-1.417,131.583
1146.373059876,0.0249,0.02,1.0122,1.165,-1.417,131.583
1146.473059929,0.0244,0.0205,1.0127,1.165,-1.417,131.583
1146.573059981,0.0259,0.0205,1.0117,1.165,-1.417,131.583
1146.673059997,0.0249,0.02,1.0112,1.165,-1.417,131.583
1146.773060013,0.0249,0.0195,1.0122,1.165,-1.423,131.583
1146.87306013,0.0264,0.02,1.0122,1.165,-1.423,131.583
1146.973060224,0.0239,0.0195,1.0112,1.165,-1.423,131.583
1147.073060243,0.0244,0.0215,1.0117,1.165,-1.423,131.583
1147.173060299,0.0254,0.0186,1.0132,1.165,-1.417,131.583
1147.27306041,0.0239,0.0176,1.0132,1.165,-1.423,131.583
1147.373060522,0.0259,0.0225,1.0107,1.165,-1.417,131.583
1147.47306056,0.0244,0.0254,1.0088,1.165,-1.417,131.583
1147.573060671,0.0225,0.0181,1.0146,1.165,-1.417,131.583
1147.673065431,0.0293,0.0151,1.0156,1.165,-1.417,131.583
1147.773072468,0.0264,0.0229,1.0103,1.165,-1.417,131.583
1147.873072515,0.0186,0.022,1.0103,1.165,-1.417,131.583
1147.973072556,0.0078,0.0205,1.0107,1.165,-1.417,131.583
1148.073072634,0.021,0.021,1.0122,1.165,-1.417,131.583
1148.173072731,0.0303,0.0234,1.0117,1.165,-1.417,131.583
1148.273072809,0.0303,0.02,1.0122,1.165,-1.417,131.583
1148.373072869,0.0273,0.02,1.0132,1.17,-1.412,131.583
1148.473072891,0.022,0.0264,1.0083,1.17,-1.412,131.583
1148.573079377,0.0264,0.0176,1.0132,1.17,-1.412,131.583
1148.673079473,0.0249,0.0176,1.0146,1.17,-1.412,131.583
1148.77307957,0.0229,0.022,1.0103,1.17,-1.412,131.583
1148.873079658,0.0215,0.0166,1.0117,1.17,-1.412,131.583
1148.973079665,0.0288,0.0142,1.0171,1.17,-1.412,131.583
1149.07307971,0.0273,0.0215,1.0132,1.17,-1.412,131.583
1149.173079755,0.02,0.0244,1.0083,1.17,-1.417,131.583
1149.273079874,0.0229,0.0239,1.0093,1.17,-1.417,131.583
1149.373079992,0.021,0.0264,1.0078,1.17,-1.417,131.583
1149.473080093,0.022,0.0225,1.0103,1.17,-1.417,131.583
1149.5730801,0.0239,0.0176,1.0137,1.17,-1.412,131.583
1149.673080127,0.0283,0.019,1.0132,1.17,-1.412,131.583
1149.773080153,0.0283,0.019,1.0132,1.17,-1.412,131.583
1149.873080207,0.0234,0.0254,1.0083,1.17,-1.417,131.583
1149.973080274,0.021,0.0234,1.0103,1.17,-1.412,131.583
1150.073080304,0.021,0.0278,1.0068,1.17,-1.412,131.583
1150.17308039,0.0264,0.0186,1.0127,1.176,-1.412,131.583
1150.273081438,0.0288,0.0156,1.0146,1.176,-1.412,131.583
1150.373081486,0.0254,0.02,1.0127,1.176,-1.412,131.583
1150.473081553,0.0195,0.0293,1.0059,1.176,-1.412,131.583
1150.573081565,0.0239,0.0229,1.0107,1.176,-1.412,131.583
1150.673081613,0.0273,0.0171,1.0142,1.176,-1.412,131.583
1150.773081662,0.0234,0.0229,1.0117,1.176,-1.412,131.583
1150.873081664,0.0239,0.0239,1.0093,1.176,-1.412,131.583
1150.97308168,0.0264,0.0181,1.0137,1.176,-1.412,131.583
1151.073081714,0.0254,0.022,1.0107,1.176,-1.412,131.583
1151.173081821,0.0249,0.0259,1.0088,1.176,-1.412,131.583
1151.273081911,0.0269,0.0195,1.0132,1.176,-1.412,131.583
1151.3730855,0.0249,0.0195,1.0137,1.176,-1.412,131.583
1151.473085515,0.0239,0.0259,1.0078,1.176,-1.412,131.583
1151.573085531,0.02,0.0298,1.0049,1.176,-1.412,131.583
1151.673085583,0.0229,0.0254,1.0098,1.176,-1.412,131.583
1151.773086154,0.0264,0.0186,1.0127,1.176,-1.412,131.583
1151.87308616,0.0269,0.0176,1.0142,1.176,-1.412,131.583
1151.973086198,0.0225,0.0229,1.0088,1.176,-1.412,131.583
1152.073086217,0.0225,0.0229,1.0088,1.176,-1.412,131.583
1152.173086237,0.0234,0.0195,1.0122,1.176,-1.412,131.583
1152.273086312,0.0298,0.0156,1.0161,1.176,-1.412,131.583
1152.373086331,0.0273,0.0166,1.0146,1.176,-1.412,131.583
1152.473086369,0.0249,0.0205,1.0117,1.176,-1.412,131.583
1152.573090684,0.0264,0.0161,1.0161,1.176,-1.412,131.583
1152.673090703,0.0278,0.0205,1.0132,1.176,-1.412,131.583
1152.773090723,0.0234,0.022,1.0107,1.176,-1.412,131.583
1152.873090733,0.0264,0.0186,1.0146,1.176,-1.412,131.583
1152.973099404,0.0234,0.0186,1.0122,1.176,-1.412,131.583
1153.073103001,0.0229,0.0225,1.0098,1.176,-1.412,131.583
1153.173105117,0.0229,0.0244,1.0093,1.176,-1.412,131.583
1153.273105141,0.0283,0.0181,1.0142,1.176,-1.412,131.583
1153.373105164,0.0229,0.021,1.0107,1.176,-1.406,131.583
1153.473110465,0.0234,0.02,1.0117,1.176,-1.406,131.583
1153.573110562,0.0234,0.0249,1.0103,1.176,-1.406,131.583
1153.673110623,0.022,0.021,1.0107,1.176,-1.406,131.583
1153.773110646,0.0186,0.019,1.0127,1.176,-1.406,131.583
1153.873110698,0.022,0.0215,1.0117,1.176,-1.406,131.583
1153.973110818,0.0259,0.0142,1.0171,1.176,-1.406,131.583
1154.07311092,0.0254,0.0122,1.0176,1.176,-1.406,131.583
1154.173111003,0.0298,0.0259,1.0093,1.176,-1.406,131.583
1154.273111067,0.0205,0.0249,1.0093,1.176,-1.406,131.583
1154.373111169,0.0176,0.0166,1.0137,1.176,-1.406,131.583
1154.473111197,0.0264,0.02,1.0122,1.176,-1.406,131.583
1154.573111243,0.0303,0.0234,1.0103,1.176,-1.406,131.583
1154.673111363,0.0239,0.019,1.0112,1.176,-1.412,131.583
1154.773111465,0.0205,0.0195,1.0146,1.17,-1.412,131.583
1154.873111502,0.0273,0.0234,1.0107,1.17,-1.406,131.583
1154.973111552,0.0264,0.019,1.0122,1.17,-1.406,131.583
1155.073114306,0.0195,0.0215,1.0122,1.17,-1.406,131.583
1155.17311432,0.0229,0.022,1.0103,1.17,-1.406,131.583
1155.27312087,0.0264,0.0215,1.0117,1.176,-1.406,131.583
1155.373120976,0.0254,0.0176,1.0137,1.176,-1.406,131.583
1155.473121045,0.0259,0.021,1.0122,1.176,-1.406,131.583
1155.573121095,0.0225,0.0215,1.0117,1.176,-1.406,131.583
1155.67312122,0.0234,0.0234,1.0098,1.176,-1.406,131.583
1155.773121326,0.0239,0.021,1.0142,1.176,-1.406,131.583
1155.873121368,0.0298,0.019,1.0142,1.176,-1.406,131.583
1155.973121441,0.0249,0.0195,1.0132,1.176,-1.406,131.583
1156.073124292,0.0215,0.0195,1.0117,1.176,-1.401,131.583
1156.173124902,0.0239,0.0239,1.0098,1.176,-1.401,131.583
1156.273124939,0.0244,0.0225,1.0112,1.181,-1.401,131.583
1156.373124993,0.0244,0.019,1.0127,1.181,-1.401,131.583
1156.473124993,0.0264,0.021,1.0103,1.181,-1.401,131.583
1156.573125085,0.0249,0.021,1.0117,1.181,-1.395,131.583
1156.673125195,0.0229,0.021,1.0122,1.181,-1.395,131.583
1156.77312525,0.0239,0.021,1.0117,1.181,-1.395,131.583
1156.873125333,0.0249,0.0215,1.0117,1.181,-1.395,131.583
1156.973125374,0.0244,0.0195,1.0127,1.181,-1.395,131.583
1157.073125396,0.0249,0.0205,1.0117,1.181,-1.395,131.583
1157.173125419,0.0239,0.0205,1.0112,1.181,-1.395,131.583
1157.273125515,0.0249,0.021,1.0117,1.181,-1.395,131.583
1157.373131315,0.0278,0.0195,1.0127,1.187,-1.395,131.583
1157.473131319,0.0254,0.021,1.0132,1.187,-1.395,131.583
1157.57313136,0.0234,0.0215,1.0117,1.187,-1.395,131.583
1157.673131363,0.0244,0.022,1.0107,1.187,-1.395,131.583
1157.773139015,0.0264,0.0186,1.0137,1.187,-1.395,131.583
1157.873139103,0.0264,0.0181,1.0137,1.187,-1.395,131.583
1157.973139167,0.0254,0.021,1.0117,1.187,-1.395,131.583
1158.073139213,0.0234,0.021,1.0112,1.187,-1.395,131.583
1158.173139314,0.0229,0.02,1.0137,1.187,-1.395,131.583
1158.273139341,0.0239,0.0215,1.0122,1.187,-1.395,131.583
1158.373139386,0.0229,0.0229,1.0098,1.187,-1.395,131.583
1158.47314008,0.0225,0.0229,1.0107,1.187,-1.395,131.583
1158.573146625,0.0229,0.021,1.0117,1.187,-1.39,131.583
1158.673146726,0.0249,0.021,1.0107,1.187,-1.39,131.583
1158.773150882,0.0254,0.0215,1.0112,1.187,-1.39,131.583
1158.873150938,0.0244,0.0215,1.0112,1.187,-1.395,131.583
1158.973151007,0.0249,0.0215,1.0117,1.187,-1.395,131.583
1159.073151094,0.0229,0.021,1.0117,1.187,-1.395,131.583
1159.173151144,0.0269,0.02,1.0127,1.187,-1.39,131.583
1159.273151213,0.0249,0.0181,1.0142,1.187,-1.39,131.583
1159.373151245,0.0278,0.0186,1.0132,1.187,-1.39,131.583
1159.473151258,0.0259,0.02,1.0122,1.187,-1.39,131.583
1159.573151327,0.0239,0.021,1.0103,1.187,-1.39,131.583
1159.673151414,0.0239,0.0205,1.0112,1.187,-1.39,131.583
1159.773154538,0.0254,0.02,1.0127,1.187,-1.395,131.583
1159.87315458,0.0259,0.0205,1.0127,1.187,-1.395,131.583
1159.973154654,0.0264,0.021,1.0122,1.187,-1.39,131.583
1160.073154672,0.0254,0.02,1.0122,1.192,-1.39,131.583
1160.17315469,0.0269,0.0205,1.0127,1.192,-1.39,131.583
1160.273154764,0.0269,0.0181,1.0146,1.192,-1.39,131.583
1160.373154856,0.0249,0.0186,1.0137,1.192,-1.39,131.583
1160.473154911,0.0254,0.0229,1.0098,1.192,-1.39,131.583
1160.573155003,0.0215,0.0234,1.0103,1.192,-1.39,131.583
1160.673155058,0.0215,0.0225,1.0103,1.192,-1.39,131.583
1160.773155095,0.0225,0.0234,1.0103,1.192,-1.39,131.583
1160.873155142,0.0225,0.021,1.0117,1.192,-1.39,131.583
1160.973155239,0.0234,0.0205,1.0122,1.192,-1.39,131.583
1161.073155299,0.0249,0.02,1.0122,1.192,-1.39,131.583
1161.173155359,0.0254,0.0195,1.0132,1.192,-1.39,131.583
1161.273155456,0.0264,0.0195,1.0127,1.192,-1.39,131.583
1161.373163979,0.0249,0.0205,1.0122,1.192,-1.39,131.583
1161.47316402,0.0234,0.022,1.0117,1.192,-1.384,131.583
1161.573167414,0.0244,0.0234,1.0093,1.192,-1.384,131.583
1161.673167474,0.0254,0.0195,1.0127,1.192,-1.384,131.583
1161.773167534,0.0239,0.0186,1.0137,1.192,-1.384,131.583
1161.873167641,0.0254,0.0205,1.0122,1.192,-1.384,131.583
1161.973167762,0.0244,0.0229,1.0093,1.192,-1.39,131.583
1162.073167827,0.0234,0.02,1.0122,1.192,-1.39,131.583
1162.173167874,0.0234,0.0215,1.0098,1.192,-1.39,131.583
1162.273167994,0.0239,0.0215,1.0112,1.192,-1.39,131.583
1162.373168004,0.0264,0.019,1.0142,1.192,-1.39,131.583
1162.473168106,0.0249,0.0186,1.0142,1.192,-1.39,131.583
1162.573170338,0.0264,0.0195,1.0142,1.192,-1.39,131.583
1162.673170422,0.0254,0.02,1.0127,1.192,-1.39,131.583
1162.773170524,0.0239,0.02,1.0122,1.192,-1.39,131.583
1162.873170599,0.0249,0.02,1.0117,1.192,-1.384,131.583
1162.973170707,0.0259,0.0205,1.0122,1.192,-1.384,131.583
1163.073170796,0.0239,0.02,1.0122,1.192,-1.384,131.583
1163.173170829,0.0229,0.021,1.0122,1.192,-1.384,131.583
1163.273170844,0.0225,0.0225,1.0103,1.192,-1.384,131.583
1163.37317097,0.0225,0.0229,1.0093,1.192,-1.384,131.583
1163.473171058,0.0225,0.0215,1.0107,1.192,-1.384,131.583
1163.573171647,0.0239,0.0186,1.0132,1.192,-1.384,131.583
1163.673171718,0.0278,0.02,1.0142,1.192,-1.384,131.583
1163.773171825,0.0234,0.0244,1.0107,1.192,-1.384,131.583
1163.873171887,0.02,0.0215,1.0112,1.192,-1.384,131.583
1163.973171981,0.0229,0.0195,1.0122,1.192,-1.384,131.583
1164.073171983,0.0234,0.0234,1.0098,1.192,-1.384,131.583
1164.173172077,0.0225,0.021,1.0117,1.192,-1.379,131.583
1164.273172097,0.0249,0.0215,1.0122,1.192,-1.379,131.583
1164.373172136,0.0254,0.0205,1.0127,1.192,-1.379,131.583
1164.473172211,0.022,0.02,1.0117,1.192,-1.384,131.583
1164.573176676,0.0229,0.0234,1.0093,1.192,-1.384,131.583
1164.673184714,0.0244,0.021,1.0117,1.192,-1.384,131.583
1164.773184734,0.0244,0.022,1.0112,1.192,-1.384,131.583
1164.873184838,0.0259,0.0215,1.0117,1.192,-1.384,131.583
1164.973184901,0.0259,0.0186,1.0132,1.192,-1.384,131.583
1165.073185001,0.0239,0.0195,1.0132,1.192,-1.384,131.583
1165.1731851,0.0239,0.0229,1.0107,1.192,-1.384,131.583
1165.273185218,0.0249,0.0205,1.0117,1.192,-1.384,131.583
1165.373185225,0.0234,0.02,1.0122,1.192,-1.384,131.583
1165.473185288,0.0225,0.0229,1.0098,1.192,-1.379,131.583
1165.573185294,0.0215,0.0234,1.0098,1.192,-1.379,131.583
1165.67318532,0.0229,0.022,1.0122,1.192,-1.379,131.583
1165.773187438,0.0229,0.0215,1.0127,1.192,-1.379,131.583
1165.873193066,0.0239,0.021,1.0122,1.192,-1.379,131.583
1165.973198078,0.0234,0.0205,1.0122,1.192,-1.379,131.583
1166.073198128,0.0244,0.0205,1.0122,1.192,-1.379,131.583
1166.173198214,0.0249,0.021,1.0112,1.192,-1.379,131.583
1166.273198301,0.0239,0.021,1.0117,1.192,-1.379,131.583
1166.373198332,0.0229,0.0215,1.0117,1.192,-1.379,131.583
1166.473198344,0.0234,0.0205,1.0117,1.192,-1.379,131.583
1166.573198431,0.0244,0.0205,1.0122,1.192,-1.379,131.583
1166.673198443,0.0249,0.021,1.0122,1.192,-1.379,131.583
1166.773198456,0.0239,0.0205,1.0117,1.192,-1.379,131.583
1166.873198553,0.0229,0.0225,1.0098,1.192,-1.379,131.583
1166.973198645,0.0249,0.021,1.0117,1.192,-1.379,131.583
1167.073198737,0.0254,0.02,1.0122,1.192,-1.379,131.583
1167.173198773,0.0234,0.0229,1.0107,1.192,-1.384,131.583
1167.273198791,0.0229,0.0229,1.0103,1.192,-1.384,131.583
1167.373198846,0.0234,0.0205,1.0112,1.192,-1.384,131.583
1167.47319892,0.0234,0.02,1.0127,1.192,-1.384,131.583
1167.573198957,0.0327,0.0371,0.999,1.192,-1.384,131.583
1167.67319903,0.0254,0.0181,1.0151,1.187,-1.39,131.583
1167.773199122,0.0288,0.0068,1.0225,1.181,-1.39,131.583
1167.873199169,0.0386,0.0254,1.0098,1.187,-1.39,131.583
1167.973203008,0.0269,0.0273,1.0073,1.187,-1.39,131.583
1168.073209494,0.0107,0.0146,1.0137,1.187,-1.39,131.583
1168.173209573,0.019,0.0195,1.0117,1.181,-1.395,131.583
1168.273209634,0.0308,0.0264,1.0088,1.187,-1.395,131.583
1168.373209676,0.0244,0.0181,1.0142,1.187,-1.395,131.583
1168.473209737,0.0225,0.0132,1.0156,1.181,-1.395,131.583
1168.573209816,0.0308,0.0244,1.0098,1.187,-1.401,131.583
1168.673209859,0.0273,0.0264,1.0093,1.187,-1.401,131.583
1168.773213382,0.0186,0.0181,1.0142,1.187,-1.395,131.583
1168.873213417,0.0225,0.02,1.0122,1.181,-1.395,131.583
1168.973213446,0.0259,0.0205,1.0122,1.181,-1.395,131.583
1169.073213513,0.0239,0.0181,1.0142,1.181,-1.395,131.583
1169.173213598,0.0269,0.0181,1.0137,1.181,-1.395,131.583
1169.273213609,0.0259,0.022,1.0112,1.181,-1.395,131.583
1169.373213657,0.0249,0.0205,1.0107,1.181,-1.401,131.583
1169.473213705,0.0244,0.0215,1.0098,1.181,-1.395,131.583
1169.573213734,0.0229,0.022,1.0112,1.181,-1.401,131.583
1169.673213801,0.019,0.0259,1.0088,1.181,-1.401,131.583
1169.773213886,0.0205,0.022,1.0107,1.181,-1.395,131.583
1169.873213982,0.022,0.0195,1.0127,1.181,-1.401,131.583
1169.973214073,0.0269,0.0176,1.0137,1.181,-1.395,131.583
1170.073214182,0.0288,0.0112,1.019,1.181,-1.395,131.583
1170.173214292,0.0259,0.022,1.0107,1.187,-1.395,131.583
1170.273214327,0.0225,0.0298,1.0039,1.187,-1.395,131.583
1170.373214362,0.022,0.021,1.0112,1.181,-1.395,131.583
1170.473214453,0.0269,0.0127,1.0171,1.181,-1.401,131.583
1170.573214507,0.0249,0.0205,1.0112,1.187,-1.401,131.583
1170.67321458,0.021,0.0229,1.0098,1.187,-1.401,131.583
1170.773214708,0.0215,0.0254,1.0078,1.187,-1.395,131.583
1170.873214772,0.0234,0.0146,1.0161,1.187,-1.395,131.583
1170.973214851,0.0244,0.0176,1.0137,1.187,-1.395,131.583
1171.073214911,0.0249,0.0254,1.0093,1.187,-1.395,131.583
1171.173214971,0.0239,0.0269,1.0083,1.187,-1.395,131.583
1171.273214975,0.0244,0.0122,1.019,1.187,-1.395,131.583
1171.373214979,0.0283,0.0142,1.0171,1.187,-1.395,131.583
1171.473215039,0.0283,0.0273,1.0093,1.181,-1.395,131.583
1171.573215099,0.0215,0.0298,1.0049,1.187,-1.395,131.583
1171.673215159,0.02,0.0215,1.0103,1.187,-1.395,131.583
1171.7732227,0.0288,0.0122,1.0176,1.187,-1.395,131.583
1171.873222789,0.0269,0.0151,1.0166,1.187,-1.39,131.583
1171.973222874,0.0254,0.0254,1.0103,1.192,-1.39,131.583
1172.073222977,0.0215,0.0215,1.0107,1.192,-1.395,131.583
1172.173223006,0.022,0.022,1.0103,1.192,-1.395,131.583
1172.273223072,0.0269,0.0244,1.0093,1.192,-1.401,131.583
1172.373223101,0.0244,0.0312,1.0049,1.198,-1.401,131.583
1172.473223185,0.02,0.0166,1.0132,1.192,-1.401,131.583
1172.57322327,0.0269,0.0181,1.0142,1.192,-1.401,131.583
1172.67322328,0.0308,0.0142,1.0166,1.192,-1.401,131.583
1172.773223365,0.021,0.0254,1.0078,1.192,-1.401,131.583
1172.873223405,0.0186,0.0249,1.0088,1.192,-1.401,131.583
1172.973223421,0.0234,0.0176,1.0132,1.192,-1.401,131.583
1173.073229438,0.0254,0.0137,1.0161,1.192,-1.401,131.583
1173.173237028,0.0283,0.0205,1.0137,1.187,-1.401,131.583
1173.273237044,0.0229,0.0176,1.0142,1.187,-1.401,131.583
1173.373243116,0.0229,0.0249,1.0083,1.187,-1.401,131.583
1173.473243226,0.0229,0.022,1.0107,1.187,-1.395,131.583
1173.573243279,0.0244,0.0254,1.0088,1.187,-1.395,131.583
1173.673243388,0.0273,0.0161,1.0146,1.181,-1.395,131.583
1173.773248331,0.0273,0.0156,1.0161,1.181,-1.395,131.583
1173.873250673,0.0264,0.0156,1.0161,1.181,-1.395,131.583
1173.973250696,0.0264,0.0127,1.0171,1.181,-1.395,131.583
1174.073250811,0.0259,0.021,1.0117,1.181,-1.395,131.583
1174.173258445,0.0215,0.021,1.0117,1.181,-1.395,131.583
1174.27325856,0.0215,0.0225,1.0107,1.181,-1.395,131.583
1174.373258602,0.0234,0.02,1.0127,1.181,-1.395,131.583
1174.47325868,0.0249,0.0195,1.0122,1.181,-1.395,131.583
1174.573258703,0.0225,0.0264,1.0078,1.181,-1.395,131.583
1174.673258708,0.0234,0.0273,1.0073,1.181,-1.395,131.583
1174.773258768,0.0244,0.0205,1.0107,1.181,-1.395,131.583
1174.873258876,0.0254,0.0244,1.0088,1.181,-1.395,131.583
1174.973264849,0.0229,0.0205,1.0127,1.181,-1.395,131.583
1175.073264915,0.0254,0.0239,1.0103,1.181,-1.395,131.583
1175.173264945,0.0244,0.0229,1.0107,1.181,-1.395,131.583
1175.273264974,0.022,0.0132,1.0156,1.181,-1.395,131.583
1175.373265077,0.0283,0.0181,1.0142,1.181,-1.395,131.583
1175.473265162,0.0234,0.0181,1.0132,1.181,-1.395,131.583
1175.57326521,0.0273,0.019,1.0137,1.181,-1.395,131.583
1175.673265239,0.0225,0.0229,1.0107,1.181,-1.401,131.583
1175.773265361,0.02,0.0225,1.0107,1.181,-1.401,131.583
1175.873265642,0.0234,0.0195,1.0127,1.181,-1.395,131.583
1175.973265771,0.0259,0.0234,1.0103,1.181,-1.401,131.583
1176.073265843,0.0244,0.0195,1.0122,1.181,-1.401,131.583
1176.173265898,0.0234,0.0264,1.0088,1.181,-1.401,131.583
1176.273265952,0.0264,0.0171,1.0146,1.181,-1.401,131.583
1176.373273321,0.0259,0.0195,1.0137,1.181,-1.401,131.583
1176.473273393,0.0278,0.0132,1.0171,1.181,-1.401,131.583
1176.573274003,0.0244,0.0195,1.0132,1.181,-1.401,131.583
1176.673274076,0.0244,0.0229,1.0107,1.181,-1.401,131.583
1176.773274112,0.0225,0.0278,1.0073,1.181,-1.401,131.583
1176.873274214,0.0244,0.0195,1.0127,1.181,-1.401,131.583
1176.97327422,0.0264,0.02,1.0132,1.181,-1.395,131.583
1177.073274262,0.0283,0.0166,1.0166,1.181,-1.395,131.583
1177.173274304,0.0244,0.0195,1.0132,1.181,-1.395,131.583
1177.273274309,0.0254,0.0215,1.0117,1.181,-1.395,131.583
1177.373274389,0.021,0.0234,1.0103,1.181,-1.395,131.583
1177.473274505,0.0234,0.022,1.0112,1.181,-1.395,131.583
1177.573274548,0.0249,0.021,1.0127,1.181,-1.395,131.583
1177.67327459,0.0229,0.0229,1.0083,1.181,-1.395,131.583
1177.773274669,0.0239,0.0142,1.0146,1.181,-1.395,131.583
1177.87327476,0.0273,0.0186,1.0137,1.181,-1.395,131.583
1177.973274864,0.0269,0.0195,1.0146,1.181,-1.395,131.583
1178.073274895,0.0244,0.0239,1.0103,1.181,-1.395,131.583
1178.173274944,0.021,0.0215,1.0112,1.181,-1.395,131.583
1178.273275067,0.0259,0.0161,1.0156,1.181,-1.395,131.583
1178.373275079,0.0278,0.0151,1.0161,1.181,-1.395,131.583
1178.473275091,0.0244,0.0195,1.0137,1.181,-1.395,131.583
1178.573275121,0.0244,0.0239,1.0098,1.181,-1.395,131.583
1178.673275152,0.0205,0.0283,1.0073,1.181,-1.395,131.583
1178.773275256,0.0244,0.022,1.0107,1.187,-1.395,131.583
1178.873275335,0.0254,0.0146,1.0161,1.187,-1.395,131.583
1178.973275428,0.0249,0.0142,1.0161,1.187,-1.395,131.583
1179.073275465,0.0254,0.0205,1.0117,1.187,-1.39,131.583
1179.173275502,0.0239,0.0283,1.0063,1.181,-1.39,131.583
1179.273275539,0.022,0.0244,1.0098,1.181,-1.39,131.583
1179.373275595,0.0239,0.0186,1.0137,1.181,-1.39,131.583
1179.473275632,0.0249,0.0254,1.0078,1.187,-1.39,131.583
1179.573275707,0.0244,0.0186,1.0132,1.187,-1.39,131.583
1179.673275725,0.0239,0.0161,1.0151,1.187,-1.39,131.583
1179.773275744,0.0254,0.0166,1.0156,1.181,-1.39,131.583
1179.87327583,0.0254,0.0229,1.0107,1.181,-1.395,131.583
1179.973275929,0.021,0.0234,1.0098,1.181,-1.395,131.583
1180.073275955,0.0278,0.0186,1.0137,1.187,-1.395,131.583
1180.173275999,0.0254,0.0151,1.0166,1.187,-1.395,131.583
1180.273276061,0.0254,0.0181,1.0137,1.187,-1.395,131.583
1180.373277087,0.022,0.0259,1.0073,1.187,-1.395,131.583
1180.473280946,0.0215,0.021,1.0122,1.187,-1.395,131.583
1180.573280953,0.0269,0.0195,1.0117,1.187,-1.39,131.583
1180.673281015,0.0254,0.0122,1.0186,1.187,-1.39,131.583
1180.773281041,0.0234,0.0215,1.0127,1.187,-1.39,131.583
1180.873281077,0.0225,0.0259,1.0083,1.187,-1.39,131.583
1180.973281184,0.021,0.0312,1.0044,1.187,-1.39,131.583
1181.073284142,0.0205,0.0176,1.0132,1.187,-1.39,131.583
1181.173284193,0.0278,0.0142,1.0161,1.187,-1.39,131.583
1181.273284225,0.0269,0.0142,1.0186,1.187,-1.39,131.583
1181.373284276,0.0234,0.0195,1.0122,1.187,-1.39,131.583
1181.473284309,0.0229,0.022,1.0112,1.187,-1.39,131.583
1181.573285564,0.0225,0.0293,1.0073,1.187,-1.39,131.583
1181.673285652,0.022,0.021,1.0127,1.187,-1.395,131.583
1181.773323089,0.0269,0.019,1.0127,1.187,-1.395,131.583
1181.873323133,0.0283,0.0103,1.0186,1.192,-1.39,131.583
1181.973323228,0.0254,0.0171,1.0151,1.187,-1.395,131.583
1182.073323341,0.0229,0.0239,1.0103,1.187,-1.395,131.583
1182.173323362,0.0225,0.0205,1.0122,1.187,-1.395,131.583
1182.27332342,0.0254,0.0171,1.0146,1.187,-1.39,131.583
1182.373323478,0.0244,0.0215,1.0117,1.187,-1.39,131.583
1182.473323573,0.0234,0.0273,1.0073,1.187,-1.39,131.583
1182.57332365,0.0229,0.0225,1.0103,1.192,-1.39,131.583
1182.67332369,0.0254,0.021,1.0132,1.192,-1.39,131.583
1182.773323729,0.0264,0.0195,1.0137,1.192,-1.39,131.583
1182.873323761,0.0244,0.0137,1.0176,1.192,-1.39,131.583
1182.973323808,0.0234,0.0244,1.0103,1.192,-1.39,131.583
1183.073323873,0.0215,0.0298,1.0078,1.192,-1.39,131.583
1183.173323938,0.0249,0.019,1.0137,1.192,-1.39,131.583
1183.273324059,0.0264,0.0151,1.0156,1.192,-1.39,131.583
1183.373324142,0.0234,0.0215,1.0112,1.192,-1.39,131.583
1183.473324207,0.021,0.0239,1.0103,1.192,-1.39,131.583
1183.573324273,0.0249,0.0137,1.0166,1.192,-1.39,131.583
1183.673331189,0.0293,0.021,1.0127,1.192,-1.39,131.583
1183.773331291,0.0229,0.0269,1.0068,1.192,-1.39,131.583
1183.873331349,0.0225,0.0215,1.0107,1.187,-1.39,131.583
1183.973331366,0.0264,0.0112,1.0176,1.187,-1.39,131.583
1184.07333142,0.0293,0.0093,1.019,1.187,-1.395,131.583
1184.173331511,0.0278,0.0156,1.0161,1.192,-1.39,131.583
1184.273331583,0.0239,0.0273,1.0083,1.192,-1.39,131.583
1184.373331674,0.0186,0.0298,1.0054,1.192,-1.395,131.583
1184.473331728,0.0249,0.0176,1.0137,1.192,-1.39,131.583
1184.573331781,0.0264,0.019,1.0127,1.187,-1.395,131.583
1184.673331817,0.0239,0.0195,1.0127,1.187,-1.395,131.583
1184.773331833,0.0264,0.0176,1.0151,1.187,-1.395,131.583
1184.873331843,0.0229,0.0239,1.0083,1.187,-1.395,131.583
1184.973331848,0.0229,0.02,1.0137,1.187,-1.39,131.583
1185.073331947,0.0244,0.0137,1.0186,1.192,-1.39,131.583
1185.173332063,0.0215,0.0215,1.0127,1.192,-1.39,131.583
1185.273332124,0.0264,0.0264,1.0078,1.192,-1.39,131.583
1185.373332204,0.0186,0.0225,1.0103,1.192,-1.39,131.583
1185.473332302,0.0234,0.0171,1.0132,1.187,-1.39,131.583
1185.573332363,0.0278,0.0142,1.0156,1.187,-1.39,131.583
1185.67333248,0.0278,0.019,1.0127,1.187,-1.39,131.583
1185.77333256,0.0205,0.0132,1.0151,1.187,-1.39,131.583
1185.873332613,0.0244,0.0142,1.0161,1.187,-1.39,131.583
1185.973332682,0.0244,0.0181,1.0127,1.187,-1.39,131.583
1186.073332732,0.0254,0.0166,1.0142,1.187,-1.39,131.583
1186.173332819,0.0264,0.0122,1.0171,1.187,-1.39,131.583
1186.27333748,0.0249,0.0195,1.0127,1.187,-1.39,131.583
1186.373337493,0.0234,0.02,1.0137,1.187,-1.39,131.583
1186.473337543,0.0225,0.0259,1.0068,1.187,-1.39,131.583
1186.573337593,0.0239,0.0176,1.0146,1.187,-1.39,131.583
1186.673337643,0.0239,0.0244,1.0098,1.181,-1.39,131.583
1186.773337656,0.0249,0.0229,1.0103,1.181,-1.39,131.583
1186.873337735,0.0234,0.0171,1.0146,1.187,-1.39,131.583
1186.973337793,0.0234,0.0264,1.0083,1.181,-1.39,131.583
1187.073338869,0.0239,0.0229,1.0103,1.181,-1.39,131.583
1187.173338908,0.0269,0.0239,1.0107,1.187,-1.39,131.583
1187.273338947,0.0239,0.0161,1.0142,1.181,-1.39,131.583
1187.373339004,0.0239,0.0186,1.0137,1.181,-1.39,131.583
1187.473345765,0.0264,0.0254,1.0073,1.181,-1.39,131.583
1187.573345804,0.0249,0.0151,1.0151,1.181,-1.395,131.583
1187.673345898,0.0234,0.0186,1.0117,1.181,-1.395,131.583
1187.773345919,0.0288,0.0166,1.0156,1.181,-1.395,131.583
1187.873346024,0.0259,0.0239,1.0117,1.181,-1.395,131.583
1187.973346052,0.0259,0.0103,1.0181,1.181,-1.395,131.583
1188.073346302,0.0283,0.0142,1.0161,1.181,-1.395,131.583
1188.173346386,0.0229,0.0293,1.0063,1.176,-1.395,131.583
1188.273346488,0.0151,0.0186,1.0083,1.181,-1.39,131.583
1188.373346535,0.0273,0.0142,1.0176,1.181,-1.395,131.583
1188.473346637,0.0293,0.0103,1.0205,1.181,-1.395,131.583
1188.57334672,0.0215,0.0332,1.0024,1.187,-1.39,131.583
1188.673353766,0.0161,0.0312,1.0054,1.187,-1.39,131.583
1188.773355127,0.0259,0.0215,1.0122,1.187,-1.395,131.583
1188.873355185,0.0278,0.0171,1.0146,1.192,-1.39,131.583
1188.973355202,0.0229,0.0259,1.0093,1.192,-1.39,131.583
1189.073355238,0.02,0.0239,1.0093,1.192,-1.39,131.583
1189.173355311,0.0225,0.0239,1.0103,1.192,-1.39,131.583
1189.273355328,0.0293,0.0142,1.019,1.192,-1.39,131.583
1189.373359548,0.0234,0.0186,1.0137,1.192,-1.395,131.583
1189.473360973,0.0239,0.0229,1.0098,1.192,-1.39,131.583
1189.573361027,0.0215,0.0181,1.0137,1.192,-1.39,131.583
1189.673361118,0.0254,0.019,1.0127,1.192,-1.39,131.583
1189.773361172,0.0288,0.0269,1.0088,1.192,-1.39,131.583
1189.873361238,0.0278,0.0249,1.0098,1.192,-1.39,131.583
1189.973361299,0.022,0.02,1.0132,1.192,-1.39,131.583
1190.073362657,0.0215,0.019,1.0127,1.192,-1.39,131.583
1190.173362701,0.0249,0.02,1.0127,1.192,-1.39,131.583
1190.273367077,0.0269,0.0205,1.0117,1.192,-1.39,131.583
1190.373368824,0.0244,0.02,1.0117,1.187,-1.39,131.583
1190.473374182,0.0234,0.0215,1.0112,1.187,-1.39,131.583
1190.573374281,0.0278,0.0215,1.0107,1.187,-1.39,131.583
1190.673382361,0.0186,0.019,1.0132,1.187,-1.384,131.583
1190.773382386,0.0288,0.0234,1.0112,1.187,-1.384,131.583
1190.873386588,0.0244,0.02,1.0122,1.187,-1.384,131.583
1190.973386695,0.0293,0.022,1.0112,1.187,-1.384,131.583
1191.073386765,0.0352,0.0264,1.0073,1.187,-1.379,131.583
1191.173386853,0.0249,0.0181,1.0112,1.176,-1.395,131.583
1191.273386922,0.0186,0.0186,1.0132,1.176,-1.39,131.583
1191.373387011,0.0239,0.0225,1.0093,1.176,-1.384,131.583
1191.473387136,0.0249,0.0225,1.0107,1.176,-1.39,131.583
1191.573387243,0.0234,0.0205,1.0127,1.176,-1.384,131.583
1191.673387257,0.0244,0.0205,1.0122,1.176,-1.384,131.583
1191.773387308,0.0278,0.0181,1.0137,1.176,-1.384,131.583
1191.873387333,0.0254,0.0186,1.0151,1.176,-1.384,131.567
1191.973392688,0.0215,0.0195,1.0107,1.176,-1.384,131.567
1192.07339271,0.0239,0.0215,1.0117,1.176,-1.379,131.556
1192.173392714,0.0244,0.019,1.0132,1.176,-1.379,131.556
1192.273392717,0.0254,0.0205,1.0127,1.176,-1.379,131.556
1192.373397498,0.0254,0.0215,1.0107,1.176,-1.379,131.556
1192.473397502,0.0229,0.02,1.0117,1.176,-1.379,131.556
1192.57340182,0.0249,0.022,1.0117,1.17,-1.379,131.556
1192.673401879,0.0234,0.022,1.0117,1.17,-1.379,131.556
1192.773401882,0.0239,0.0205,1.0103,1.17,-1.379,131.556
1192.873401953,0.0234,0.021,1.0098,1.17,-1.379,131.556
1192.973402057,0.0225,0.019,1.0117,1.17,-1.379,131.556
1193.073402106,0.0239,0.02,1.0127,1.17,-1.379,131.556
1193.173402154,0.0229,0.0225,1.0107,1.17,-1.373,131.556
1193.27340948,0.021,0.019,1.0132,1.17,-1.373,131.556
1193.373409584,0.0239,0.02,1.0127,1.165,-1.373,131.556
1193.473409706,0.0239,0.0195,1.0112,1.165,-1.373,131.556
1193.573409792,0.0234,0.0195,1.0112,1.165,-1.373,131.556
1193.673409822,0.0239,0.02,1.0127,1.165,-1.373,131.556
1193.77340987,0.0249,0.019,1.0132,1.165,-1.373,131.556
1193.873409875,0.0249,0.0181,1.0132,1.165,-1.373,131.556
1193.973409969,0.0244,0.019,1.0132,1.165,-1.373,131.556
1194.073410062,0.0229,0.0215,1.0107,1.159,-1.368,131.556
1194.173410156,0.0239,0.02,1.0112,1.159,-1.368,131.556
1194.273410194,0.0229,0.0205,1.0122,1.159,-1.368,131.556
1194.373410287,0.0234,0.0205,1.0107,1.159,-1.368,131.556
1194.473410325,0.0244,0.0205,1.0112,1.159,-1.368,131.556
1194.573410419,0.0229,0.02,1.0112,1.159,-1.368,131.556
1194.67341042,0.0239,0.0205,1.0127,1.159,-1.368,131.556
1194.773410495,0.0249,0.019,1.0117,1.159,-1.368,131.556
1194.873414878,0.0234,0.0205,1.0122,1.159,-1.368,131.556
1194.973415942,0.0234,0.0195,1.0132,1.159,-1.368,131.556
1195.073415952,0.0215,0.0186,1.0117,1.159,-1.368,131.556
1195.173415979,0.0254,0.0205,1.0127,1.154,-1.362,131.556
1195.273415988,0.0195,0.021,1.0103,1.154,-1.362,131.556
1195.373416016,0.0239,0.0195,1.0112,1.154,-1.362,131.556
1195.473416062,0.0254,0.019,1.0137,1.154,-1.362,131.556
1195.573416071,0.0215,0.02,1.0117,1.154,-1.362,131.556
1195.673416173,0.0239,0.02,1.0127,1.154,-1.362,131.556
1195.773416219,0.0254,0.0195,1.0122,1.154,-1.362,131.556
1195.87341624,0.0249,0.0195,1.0122,1.154,-1.362,131.556
1195.973416294,0.0239,0.0171,1.0146,1.154,-1.357,131.556
1196.073416349,0.0244,0.0205,1.0122,1.154,-1.357,131.556
1196.17341644,0.0234,0.021,1.0117,1.154,-1.357,131.556
1196.273416495,0.0244,0.019,1.0132,1.154,-1.357,131.556
1196.37341716,0.0244,0.02,1.0127,1.154,-1.357,131.556
1196.473417196,0.022,0.0195,1.0122,1.154,-1.357,131.556
1196.573421028,0.0234,0.022,1.0107,1.154,-1.351,131.556
1196.673421064,0.0249,0.0215,1.0112,1.154,-1.351,131.556
1196.773421155,0.0244,0.0195,1.0122,1.154,-1.351,131.556
1196.873421221,0.022,0.0195,1.0132,1.154,-1.351,131.556
1196.973421266,0.022,0.0205,1.0103,1.154,-1.351,131.556
1197.073421384,0.0229,0.0195,1.0127,1.154,-1.351,131.556
1197.173421409,0.0244,0.0215,1.0107,1.154,-1.351,131.556
1197.273495079,0.0215,0.0181,1.0127,1.154,-1.351,131.556
1197.373495142,0.021,0.0215,1.0112,1.154,-1.351,131.556
1197.473495186,0.0244,0.0225,1.0103,1.154,-1.346,131.556
1197.57349523,0.0259,0.019,1.0132,1.154,-1.351,131.556
1197.673495293,0.0249,0.02,1.0127,1.154,-1.351,131.556
1197.773495318,0.0234,0.0195,1.0117,1.154,-1.351,131.556
1197.873495412,0.0225,0.0205,1.0112,1.154,-1.351,131.556
1197.973495427,0.0234,0.0205,1.0117,1.154,-1.351,131.556
1198.073495554,0.0254,0.0205,1.0122,1.154,-1.351,131.556
1198.173495569,0.0234,0.021,1.0107,1.154,-1.351,131.556
1198.273495622,0.0244,0.0195,1.0117,1.154,-1.346,131.556
1198.37349573,0.0244,0.0205,1.0122,1.154,-1.346,131.556
1198.473495746,0.0229,0.0229,1.0107,1.154,-1.346,131.556
1198.573495872,0.0239,0.0205,1.0127,1.154,-1.346,131.556
1198.673495906,0.0244,0.0205,1.0112,1.154,-1.346,131.556
1198.773495996,0.0225,0.019,1.0122,1.154,-1.346,131.556
1198.873496024,0.0264,0.0186,1.0122,1.159,-1.346,131.556
1198.97349614,0.0264,0.02,1.0122,1.154,-1.346,131.556
1199.073496183,0.0244,0.0186,1.0151,1.154,-1.346,131.556
1199.173496207,0.0186,0.0229,1.0073,1.159,-1.346,131.556
1199.273496286,0.0381,0.0337,1.0063,1.159,-1.346,131.556
1199.373507254,0.0239,0.022,1.0103,1.154,-1.346,131.556
1199.473507278,0.0137,0.0137,1.0146,1.154,-1.346,131.556
1199.573507339,0.0205,0.0137,1.0137,1.148,-1.346,131.556
1199.6735074,0.0244,0.0229,1.0093,1.148,-1.346,131.556
1199.773507442,0.0215,0.0205,1.0127,1.143,-1.34,131.556
1199.873507534,0.0249,0.0205,1.0142,1.143,-1.335,131.556
1199.973507622,0.0288,0.0181,1.0132,1.143,-1.335,131.556
1200.073507673,0.0259,0.0176,1.0142,1.143,-1.335,131.556
1200.173507706,0.022,0.0234,1.0103,1.143,-1.329,131.556
1200.273507794,0.021,0.02,1.0127,1.137,-1.329,131.556
1200.373507882,0.0254,0.0215,1.0117,1.137,-1.329,131.556
1200.47350797,0.0269,0.0215,1.0127,1.137,-1.329,131.556
1200.573508058,0.0225,0.0181,1.0156,1.137,-1.329,131.556
1200.673508091,0.0303,0.0269,1.0054,1.137,-1.335,131.556
1200.773510475,0.0273,0.0122,1.0181,1.143,-1.335,131.556
1200.873510538,0.0303,0.0171,1.0156,1.143,-1.34,131.556
1200.973510579,0.0293,0.0273,1.0044,1.143,-1.34,131.556
1201.073510621,0.0186,0.021,1.0103,1.143,-1.346,131.556
1201.173510662,0.0156,0.0161,1.0137,1.148,-1.346,131.556
1201.273513314,0.0259,0.021,1.0112,1.148,-1.346,131.556
1201.373513411,0.0298,0.022,1.0112,1.148,-1.351,131.556
1201.473513489,0.0249,0.0176,1.0146,1.148,-1.351,131.556
1201.573513511,0.0229,0.0195,1.0122,1.148,-1.351,131.556
1201.673513571,0.0239,0.0225,1.0103,1.154,-1.351,131.556
1201.773513594,0.0269,0.0215,1.0107,1.154,-1.357,131.556
1201.873513684,0.0239,0.019,1.0127,1.154,-1.357,131.556
1201.973513771,0.0229,0.019,1.0132,1.154,-1.357,131.556
1202.073514654,0.0239,0.022,1.0112,1.154,-1.357,131.556
1202.173514685,0.0239,0.0215,1.0112,1.159,-1.357,131.556
1202.273514735,0.0234,0.0186,1.0103,1.159,-1.362,131.556
1202.373514767,0.0234,0.0171,1.0176,1.159,-1.362,131.556
1202.473514816,0.0234,0.0205,1.0122,1.159,-1.362,131.556
1202.573514829,0.0254,0.0234,1.0093,1.159,-1.362,131.556
1202.673514879,0.022,0.019,1.0117,1.159,-1.368,131.556
1202.77351491,0.0244,0.0176,1.0127,1.159,-1.368,131.556
1202.873517676,0.0273,0.022,1.0117,1.159,-1.368,131.556
1202.973518457,0.0249,0.0229,1.0103,1.159,-1.368,131.556
1203.073526682,0.0205,0.0181,1.0127,1.159,-1.368,131.556
1203.173526722,0.0239,0.0195,1.0122,1.159,-1.368,131.556
1203.27352678,0.0273,0.0195,1.0122,1.165,-1.368,131.556
1203.37352682,0.0215,0.0156,1.0117,1.165,-1.368,131.556
1203.473531268,0.0254,0.0244,1.0132,1.165,-1.368,131.556
1203.573531382,0.0229,0.022,1.0098,1.165,-1.373,131.556
1203.673531496,0.0244,0.0195,1.0132,1.165,-1.373,131.556
1203.773531555,0.0269,0.0186,1.0132,1.165,-1.373,131.556
1203.873531663,0.0269,0.0215,1.0122,1.165,-1.373,131.556
1203.97353173,0.0234,0.021,1.0122,1.165,-1.373,131.556
1204.073531835,0.0244,0.021,1.0103,1.165,-1.373,131.556
1204.173531884,0.0254,0.0195,1.0146,1.165,-1.373,131.556
1204.273534506,0.0244,0.0195,1.0127,1.165,-1.373,131.556
1204.373539129,0.0234,0.0205,1.0107,1.165,-1.373,131.556
1204.473539215,0.0244,0.0215,1.0112,1.165,-1.373,131.556
1204.573542671,0.0244,0.02,1.0122,1.165,-1.373,131.556
1204.673542757,0.0249,0.019,1.0122,1.165,-1.373,131.556
1204.773551509,0.0234,0.021,1.0117,1.165,-1.373,131.556
1204.873551571,0.0234,0.0215,1.0112,1.165,-1.373,131.556
1204.973551592,0.0239,0.0215,1.0107,1.165,-1.373,131.556
1205.073551612,0.0234,0.0205,1.0122,1.165,-1.373,131.556
1205.173557892,0.0244,0.021,1.0117,1.165,-1.373,131.556
1205.27355795,0.0239,0.0215,1.0117,1.165,-1.373,131.556
1205.373562304,0.0234,0.02,1.0112,1.165,-1.373,131.556
1205.473562399,0.0234,0.02,1.0117,1.165,-1.373,131.556
1205.573562457,0.0234,0.02,1.0122,1.165,-1.373,131.556
1205.673562533,0.0234,0.02,1.0127,1.165,-1.373,131.556
1205.773562609,0.0239,0.0205,1.0127,1.165,-1.373,131.556
1205.873562717,0.0249,0.0215,1.0122,1.165,-1.373,131.556
1205.973562747,0.0234,0.021,1.0112,1.17,-1.373,131.556
1206.073562832,0.0239,0.021,1.0122,1.17,-1.373,131.556
1206.17356288,0.0239,0.02,1.0117,1.17,-1.373,131.556
1206.273562892,0.0239,0.0205,1.0122,1.17,-1.373,131.556
1206.373562958,0.0244,0.0215,1.0117,1.17,-1.373,131.556
1206.473562988,0.0234,0.0205,1.0112,1.17,-1.373,131.556
1206.573563055,0.0239,0.0205,1.0127,1.17,-1.373,131.556
1206.673563159,0.0244,0.0205,1.0117,1.17,-1.373,131.556
1206.773563207,0.0234,0.021,1.0107,1.17,-1.373,131.556
1206.873563213,0.0225,0.0215,1.0107,1.17,-1.373,131.556
1206.973563215,0.0239,0.02,1.0122,1.17,-1.373,131.556
1207.073563235,0.0239,0.02,1.0127,1.17,-1.373,131.556
1207.173563255,0.0254,0.02,1.0117,1.17,-1.373,131.556
1207.273563276,0.0234,0.0205,1.0112,1.17,-1.373,131.556
1207.373563315,0.0234,0.0205,1.0117,1.17,-1.373,131.556
1207.47356689,0.0244,0.0205,1.0117,1.17,-1.373,131.556
1207.573566892,0.0244,0.02,1.0122,1.17,-1.379,131.556
1207.673566931,0.0239,0.019,1.0127,1.17,-1.379,131.556
1207.773567025,0.0234,0.0186,1.0137,1.17,-1.379,131.556
1207.873567133,0.0234,0.0215,1.0112,1.17,-1.379,131.556
1207.973567218,0.0239,0.02,1.0122,1.17,-1.379,131.556
1208.073567284,0.0249,0.019,1.0117,1.17,-1.379,131.556
1208.173569388,0.0254,0.02,1.0117,1.17,-1.379,131.556
1208.273569436,0.0234,0.021,1.0103,1.165,-1.379,131.556
1208.373569484,0.0234,0.022,1.0103,1.165,-1.379,131.556
1208.473578272,0.0244,0.0195,1.0122,1.165,-1.379,131.556
1208.57357832,0.0254,0.0195,1.0127,1.165,-1.379,131.556
1208.673578405,0.0244,0.021,1.0117,1.165,-1.379,131.556
1208.773578435,0.0234,0.0225,1.0107,1.165,-1.379,131.556
1208.873578477,0.0234,0.02,1.0117,1.165,-1.379,131.556
1208.973578534,0.0249,0.0195,1.0122,1.165,-1.379,131.556
1209.073578554,0.0249,0.0181,1.0137,1.165,-1.379,131.556
1209.173578593,0.0254,0.0215,1.0117,1.165,-1.379,131.556
1209.273578632,0.0229,0.02,1.0137,1.165,-1.379,131.556
1209.373582596,0.0229,0.021,1.0107,1.165,-1.379,131.556
1209.473582709,0.0259,0.0195,1.0117,1.165,-1.379,131.556
1209.573582711,0.0239,0.0186,1.0132,1.165,-1.379,131.556
1209.673582805,0.0259,0.02,1.0122,1.165,-1.379,131.556
1209.773582862,0.0225,0.0195,1.0122,1.165,-1.379,131.556
1209.873582969,0.0239,0.0205,1.0117,1.165,-1.379,131.556
1209.973583054,0.0239,0.02,1.0117,1.165,-1.379,131.556
1210.073583121,0.0249,0.02,1.0132,1.165,-1.379,131.556
1210.173583206,0.0239,0.02,1.0127,1.165,-1.379,131.556
1210.273583272,0.0254,0.0205,1.0117,1.165,-1.379,131.556
1210.37358332,0.0254,0.0215,1.0117,1.165,-1.379,131.556
1210.473583331,0.0249,0.0225,1.0107,1.165,-1.379,131.556
1210.573583342,0.0215,0.0161,1.0146,1.165,-1.379,131.556
1210.673586057,0.0264,0.0215,1.0112,1.165,-1.379,131.556
1210.773586161,0.0249,0.0205,1.0112,1.165,-1.379,131.556
1210.873586221,0.0229,0.02,1.0122,1.165,-1.384,131.556
1210.973586223,0.0244,0.0215,1.0117,1.165,-1.384,131.556
1211.073586281,0.0254,0.021,1.0107,1.165,-1.384,131.556
1211.173586319,0.0234,0.0195,1.0122,1.165,-1.384,131.556
1211.273586321,0.0239,0.0195,1.0117,1.165,-1.384,131.556
1211.373586434,0.0264,0.021,1.0112,1.165,-1.384,131.556
1211.473586455,0.0254,0.0215,1.0122,1.165,-1.384,131.556
1211.573586493,0.0234,0.0205,1.0112,1.165,-1.384,131.556
1211.673586569,0.0225,0.0195,1.0117,1.165,-1.384,131.556
1211.773592663,0.0254,0.0225,1.0112,1.165,-1.384,131.556
1211.873592771,0.0229,0.02,1.0122,1.17,-1.384,131.556
1211.973592856,0.0229,0.0171,1.0142,1.165,-1.379,131.556
1212.07359296,0.0249,0.021,1.0117,1.165,-1.379,131.556
1212.173595638,0.0254,0.0229,1.0112,1.165,-1.379,131.556
1212.27359576,0.021,0.019,1.0127,1.165,-1.379,131.556
1212.37359579,0.0239,0.021,1.0122,1.165,-1.379,131.556
1212.473595857,0.0264,0.022,1.0107,1.165,-1.379,131.556
1212.573595868,0.0254,0.0215,1.0107,1.165,-1.379,131.556
1212.67359599,0.0229,0.019,1.0132,1.165,-1.379,131.556
1212.773596001,0.0239,0.022,1.0239,1.165,-1.379,131.556
1212.873596007,0.0312,0.0259,1.0049,1.165,-1.379,131.556
1212.973596084,0.0176,0.0142,1.0254,1.165,-1.379,131.556
1213.07359616,0.0195,0.0161,1.0137,1.165,-1.384,131.556
1213.173596162,0.0259,0.0269,1.0034,1.165,-1.384,131.556
1213.273596183,0.0239,0.0205,1.0107,1.165,-1.384,131.556
1213.373603944,0.0229,0.0166,1.0151,1.165,-1.384,131.556
1213.47360402,0.0269,0.0225,1.0107,1.165,-1.384,131.556
1213.573604041,0.0244,0.0215,1.0112,1.165,-1.384,131.556
1213.673604117,0.0254,0.021,1.0117,1.165,-1.379,131.556
1213.773604138,0.0229,0.02,1.0122,1.165,-1.379,131.556
1213.873604246,0.0239,0.022,1.0107,1.17,-1.379,131.556
1213.973609813,0.0249,0.021,1.0122,1.17,-1.379,131.556
1214.073612769,0.0244,0.02,1.0117,1.17,-1.379,131.556
1214.173616466,0.0239,0.0195,1.0127,1.165,-1.379,131.556
1214.27361657,0.0239,0.0225,1.0098,1.165,-1.379,131.556
1214.373616693,0.0234,0.0205,1.0112,1.165,-1.379,131.556
1214.473616798,0.0239,0.0195,1.0117,1.165,-1.379,131.556
1214.573616828,0.0254,0.021,1.0122,1.165,-1.379,131.556
1214.673616877,0.0254,0.021,1.0117,1.165,-1.379,131.556
1214.773620925,0.0229,0.0195,1.0117,1.165,-1.379,131.556
1214.873621043,0.0244,0.0205,1.0117,1.165,-1.379,131.556
1214.973621064,0.0239,0.0205,1.0112,1.165,-1.379,131.556
1215.073621067,0.0249,0.02,1.0122,1.165,-1.379,131.556
1215.173621089,0.0244,0.0195,1.0127,1.165,-1.379,131.556
1215.273621166,0.0249,0.0205,1.0112,1.165,-1.379,131.556
1215.373621261,0.0229,0.021,1.0112,1.165,-1.379,131.556
1215.473621283,0.0234,0.0205,1.0117,1.165,-1.379,131.556
1215.573622212,0.0239,0.0205,1.0127,1.165,-1.373,131.556
1215.673630307,0.0249,0.0205,1.0122,1.165,-1.373,131.556
1215.773630402,0.0239,0.0205,1.0122,1.165,-1.373,131.556
1215.873630418,0.0244,0.0205,1.0112,1.165,-1.373,131.556
1215.973630505,0.0249,0.0215,1.0127,1.165,-1.373,131.556
1216.073631536,0.0239,0.0205,1.0117,1.165,-1.379,131.556
1216.173631641,0.0244,0.0205,1.0122,1.165,-1.379,131.556
1216.27363171,0.0361,0.0195,1.0127,1.165,-1.379,131.556
1216.373631815,0.0415,0.0225,1.0146,1.165,-1.379,131.556
1216.473631828,0.0303,0.0229,1.0117,1.165,-1.373,131.556
1216.573631859,0.0166,0.022,1.0098,1.165,-1.379,131.556
1216.673631945,0.0137,0.0186,1.0107,1.165,-1.379,131.556
1216.773631958,0.019,0.0176,1.0122,1.165,-1.379,131.556
1216.873632002,0.0273,0.02,1.0117,1.165,-1.379,131.556
1216.973632062,0.0308,0.0225,1.0127,1.165,-1.379,131.556
1217.073635084,0.0269,0.021,1.0117,1.165,-1.379,131.556
1217.173635144,0.0229,0.0195,1.0117,1.165,-1.384,131.556
1217.273639907,0.022,0.0195,1.0117,1.165,-1.384,131.556
1217.373640003,0.0215,0.02,1.0117,1.165,-1.384,131.556
1217.4736401,0.0225,0.02,1.0117,1.165,-1.384,131.556
1217.573640159,0.0259,0.0205,1.0117,1.165,-1.384,131.556
1217.673640219,0.0229,0.022,1.0127,1.165,-1.384,131.556
1217.773640241,0.0259,0.019,1.0142,1.165,-1.384,131.556
1217.873640332,0.0229,0.0205,1.0127,1.165,-1.384,131.556
1217.973640383,0.0215,0.022,1.0117,1.165,-1.384,131.556
1218.073640489,0.0249,0.021,1.0107,1.165,-1.384,131.556
1218.173640503,0.0264,0.02,1.0137,1.165,-1.384,131.556
1218.273640536,0.0249,0.02,1.0117,1.165,-1.384,131.556
1218.373640568,0.0229,0.021,1.0117,1.165,-1.384,131.556
1218.473640674,0.0234,0.0215,1.0117,1.165,-1.384,131.556
1218.573640799,0.0239,0.021,1.0117,1.165,-1.379,131.556
1218.673640868,0.0249,0.02,1.0122,1.165,-1.379,131.556
1218.773640975,0.0259,0.0195,1.0127,1.165,-1.379,131.556
1218.873641076,0.0239,0.0205,1.0122,1.165,-1.379,131.556
1218.973645877,0.0229,0.02,1.0117,1.165,-1.379,131.556
1219.073645901,0.0239,0.0205,1.0122,1.165,-1.379,131.556
1219.17364598,0.0254,0.0186,1.0122,1.165,-1.379,131.556
1219.273645985,0.0249,0.0205,1.0117,1.165,-1.379,131.556
1219.373646027,0.0225,0.021,1.0107,1.165,-1.379,131.556
1219.473646051,0.0239,0.0205,1.0122,1.165,-1.379,131.556
1219.573646167,0.0239,0.021,1.0112,1.165,-1.379,131.556
1219.67364621,0.0244,0.02,1.0122,1.165,-1.379,131.556
1219.773646326,0.0244,0.0205,1.0117,1.165,-1.379,131.556
1219.873646437,0.0239,0.0205,1.0122,1.17,-1.379,131.556
1219.973646526,0.0234,0.0215,1.0112,1.17,-1.379,131.556
1220.073646616,0.0239,0.0205,1.0127,1.17,-1.379,131.556
1220.173646649,0.0234,0.0205,1.0112,1.17,-1.379,131.556
1220.273647924,0.0229,0.02,1.0122,1.17,-1.379,131.556
1220.373647976,0.0239,0.021,1.0112,1.17,-1.379,131.556
1220.473649435,0.0234,0.021,1.0122,1.17,-1.379,131.556
1220.573649469,0.0244,0.0195,1.0117,1.17,-1.379,131.556
1220.673650614,0.0254,0.0195,1.0127,1.17,-1.379,131.556
1220.773650703,0.0239,0.0205,1.0122,1.165,-1.379,131.556
1220.873650806,0.0225,0.0205,1.0112,1.165,-1.379,131.556
1220.973650831,0.0244,0.02,1.0122,1.165,-1.379,131.556
1221.07365593,0.0249,0.0181,1.0132,1.165,-1.379,131.556
1221.173655974,0.0264,0.02,1.0122,1.165,-1.379,131.556
1221.273663572,0.0234,0.0215,1.0107,1.165,-1.379,131.556
1221.373663653,0.0215,0.0205,1.0107,1.165,-1.379,131.556
1221.473663734,0.0244,0.02,1.0117,1.165,-1.379,131.556
1221.573663741,0.0239,0.0205,1.0122,1.165,-1.379,131.556
1221.673663784,0.0249,0.02,1.0127,1.165,-1.379,131.556
1221.77366381,0.0249,0.0195,1.0127,1.165,-1.379,131.556
1221.873671477,0.0225,0.021,1.0112,1.165,-1.379,131.556
1221.973671494,0.0229,0.0215,1.0112,1.165,-1.379,131.556
1222.073671585,0.0239,0.02,1.0117,1.165,-1.379,131.556
1222.17367162,0.0249,0.0205,1.0137,1.165,-1.379,131.556
1222.273671748,0.0244,0.02,1.0112,1.165,-1.379,131.556
