Time,AccX,AccY,AccZ,AngleX,AngleY,AngleZ
306.492956861,0,0,0,0,0,0
306.614120036,,,,,,
306.714072256,-0.0195,0.0986,1.0186,5.504,1.121,35.151
306.81412581,-0.0195,0.0981,1.0181,5.51,1.121,35.151
306.914106827,-0.0195,0.0986,1.0186,5.504,1.121,35.151
307.014106714,-0.019,0.0981,1.0176,5.51,1.121,35.151
307.114105861,-0.0195,0.0981,1.0195,5.51,1.121,35.151
307.214137489,-0.0205,0.0981,1.019,5.51,1.115,35.151
307.314159765,-0.0186,0.0986,1.0195,5.51,1.115,35.151
307.414176929,-0.02,0.0981,1.0186,5.51,1.115,35.151
307.514185371,-0.019,0.0981,1.0186,5.51,1.115,35.151
307.614160775,-0.019,0.0981,1.0176,5.51,1.11,35.151
307.71417281,-0.0205,0.0981,1.0186,5.51,1.11,35.151
307.814180196,-0.02,0.0977,1.0176,5.51,1.11,35.151
307.914171637,-0.019,0.0981,1.0195,5.51,1.11,35.151
308.014194375,-0.019,0.0986,1.0181,5.51,1.11,35.151
308.11419428,-0.0195,0.0977,1.0195,5.51,1.11,35.151
308.214204351,-0.0195,0.0981,1.0181,5.51,1.104,35.151
308.314214108,-0.019,0.0981,1.0195,5.51,1.104,35.151
308.414203512,-0.019,0.0986,1.0181,5.51,1.104,35.151
308.514205397,-0.0195,0.0977,1.0186,5.51,1.104,35.151
308.614202004,-0.019,0.0986,1.0171,5.51,1.099,35.151
308.714212944,-0.019,0.0977,1.019,5.51,1.099,35.151
308.814221422,-0.0195,0.0977,1.0181,5.51,1.099,35.151
308.914254344,-0.0186,0.0981,1.0181,5.51,1.099,35.151
309.014246507,-0.019,0.0986,1.0176,5.51,1.099,35.151
309.114245392,-0.019,0.0977,1.0181,5.51,1.099,35.151
309.214242054,-0.0186,0.0981,1.019,5.51,1.093,35.151
309.314243162,-0.019,0.0986,1.0186,5.51,1.093,35.151
309.414258342,-0.0186,0.0977,1.0176,5.51,1.093,35.151
309.514266004,-0.0195,0.0981,1.0181,5.51,1.093,35.151
309.614261999,-0.02,0.0991,1.0181,5.51,1.093,35.151
309.714261734,-0.019,0.0977,1.0181,5.51,1.093,35.151
309.814276489,-0.0195,0.0972,1.0171,5.51,1.093,35.151
309.914264873,-0.019,0.0981,1.0195,5.515,1.093,35.151
310.014289442,-0.0195,0.0977,1.0176,5.515,1.093,35.151
310.1142729,-0.0195,0.0981,1.0186,5.515,1.093,35.151
310.214295802,-0.02,0.0986,1.0186,5.515,1.093,35.151
310.314313445,-0.0195,0.0986,1.019,5.515,1.093,35.151
310.414285754,-0.0195,0.0986,1.0186,5.515,1.093,35.151
310.514305785,-0.019,0.0981,1.0186,5.515,1.093,35.151
310.614298057,-0.02,0.0981,1.0176,5.515,1.093,35.151
310.714300217,-0.0195,0.0986,1.0181,5.515,1.093,35.151
310.814299619,-0.019,0.0991,1.0181,5.515,1.093,35.151
310.914312761,-0.019,0.0981,1.0181,5.515,1.093,35.151
311.014312162,-0.019,0.0991,1.0181,5.515,1.093,35.151
311.114310841,-0.019,0.0981,1.0181,5.515,1.093,35.151
311.214322891,-0.0186,0.0986,1.0171,5.515,1.093,35.151
311.314325996,-0.0205,0.0977,1.0181,5.515,1.093,35.151
311.414326359,-0.0186,0.0991,1.0186,5.515,1.088,35.151
311.514320315,-0.019,0.0981,1.0195,5.515,1.093,35.151
311.614330715,-0.0205,0.0977,1.0176,5.515,1.088,35.151
311.714337226,-0.019,0.0981,1.019,5.515,1.093,35.151
311.814345571,-0.0195,0.0986,1.02,5.515,1.088,35.151
311.914347749,-0.0195,0.0986,1.019,5.515,1.088,35.151
312.014358409,-0.0186,0.0986,1.019,5.515,1.088,35.151
312.114372439,-0.02,0.0981,1.0176,5.521,1.088,35.151
312.214360783,-0.0171,0.0996,1.022,5.515,1.082,35.151
312.314374054,-0.02,0.0977,1.0151,5.515,1.082,35.151
312.414378009,-0.0166,0.0991,1.019,5.515,1.077,35.151
312.514419593,-0.0205,0.0981,1.0166,5.515,1.082,35.151
312.614422344,-0.0186,0.0981,1.02,5.515,1.077,35.151
312.714436355,-0.0181,0.0991,1.0176,5.515,1.071,35.151
312.814443291,-0.0181,0.0981,1.0195,5.515,1.071,35.151
312.914448505,-0.0205,0.0981,1.0181,5.515,1.071,35.151
313.014460423,-0.0176,0.0977,1.0181,5.515,1.066,35.151
313.114464414,-0.021,0.0986,1.0181,5.515,1.071,35.151
313.214473869,-0.0186,0.0981,1.0171,5.515,1.066,35.151
313.314489268,-0.0205,0.0981,1.019,5.515,1.066,35.151
313.414534185,-0.02,0.0981,1.0181,5.515,1.06,35.151
313.514560824,-0.0186,0.0981,1.019,5.515,1.06,35.151
313.614589648,-0.0186,0.0991,1.0181,5.515,1.06,35.151
313.71459325,-0.0195,0.0991,1.019,5.515,1.055,35.145
313.814609056,-0.0186,0.0981,1.0195,5.515,1.055,35.145
313.914628417,-0.0181,0.0986,1.019,5.515,1.055,35.145
314.014642297,-0.02,0.0972,1.019,5.515,1.055,35.145
314.114637991,-0.019,0.0986,1.0195,5.515,1.055,35.145
314.214645408,-0.02,0.0986,1.0171,5.515,1.055,35.145
314.314641361,-0.019,0.0986,1.0186,5.515,1.055,35.145
314.414633462,-0.0195,0.0977,1.0186,5.515,1.06,35.145
314.514644841,-0.0195,0.0977,1.0171,5.515,1.06,35.145
314.614692294,-0.0195,0.0981,1.02,5.515,1.066,35.145
314.714678617,-0.0195,0.0981,1.0161,5.515,1.066,35.145
314.814662162,-0.0195,0.0981,1.019,5.515,1.066,35.145
314.914714745,-0.0186,0.0986,1.019,5.515,1.066,35.145
315.014734642,-0.0195,0.0977,1.0171,5.515,1.071,35.145
315.114751169,-0.0181,0.0981,1.0176,5.515,1.071,35.145
315.214760306,-0.02,0.0977,1.0171,5.515,1.071,35.145
315.314865908,-0.0171,0.0991,1.021,5.51,1.077,35.145
315.414874711,-0.0205,0.0981,1.02,5.51,1.082,35.145
315.514870015,-0.0186,0.0986,1.0171,5.51,1.082,35.145
315.614913152,-0.019,0.0981,1.0195,5.51,1.088,35.145
315.714885751,-0.02,0.0981,1.0176,5.51,1.088,35.151
315.814889444,-0.0195,0.0977,1.0181,5.51,1.088,35.151
315.914904803,-0.0195,0.0981,1.0186,5.51,1.088,35.151
316.014907681,-0.0195,0.0981,1.0181,5.515,1.093,35.151
316.114908429,-0.02,0.0981,1.0181,5.515,1.099,35.151
316.214906973,-0.0181,0.0981,1.0181,5.515,1.099,35.151
316.314908036,-0.0186,0.0981,1.0176,5.515,1.099,35.151
316.414910005,-0.0186,0.0981,1.0166,5.515,1.099,35.151
316.514913363,-0.02,0.0986,1.0161,5.515,1.099,35.151
316.614946481,-0.0181,0.0981,1.02,5.515,1.093,35.151
316.714934209,-0.0205,0.0981,1.0166,5.515,1.099,35.151
316.814924067,-0.0186,0.0981,1.019,5.515,1.093,35.151
316.914972629,-0.02,0.0981,1.0186,5.515,1.093,35.151
317.014959672,-0.019,0.0986,1.0181,5.515,1.093,35.151
317.114982327,-0.019,0.0981,1.0171,5.515,1.093,35.151
317.21499237,-0.0195,0.0981,1.0171,5.515,1.093,35.151
317.31499171,-0.019,0.0986,1.0176,5.515,1.099,35.151
317.414992696,-0.0186,0.0991,1.0176,5.515,1.099,35.151
317.515047609,-0.019,0.0986,1.0186,5.515,1.093,35.151
317.6150398,-0.019,0.0981,1.0181,5.521,1.093,35.151
317.715043379,-0.0195,0.0986,1.0181,5.521,1.093,35.151
317.815043995,-0.0195,0.0981,1.0195,5.521,1.093,35.151
317.915047464,-0.0195,0.0981,1.0181,5.521,1.093,35.151
318.015055265,-0.019,0.0981,1.0186,5.521,1.093,35.151
318.115096141,-0.019,0.0991,1.02,5.521,1.093,35.151
318.21505035,-0.019,0.0981,1.02,5.521,1.093,35.151
318.315065466,-0.02,0.0981,1.0171,5.521,1.093,35.151
318.415080952,-0.0186,0.0986,1.0205,5.521,1.093,35.151
318.515082901,-0.02,0.0981,1.0171,5.521,1.093,35.151
318.615089091,-0.0181,0.0977,1.0142,5.521,1.093,35.151
318.715090058,-0.0166,0.1001,1.022,5.526,1.104,35.156
318.81508384,-0.021,0.0977,1.0146,5.521,1.104,35.156
318.91510553,-0.0156,0.0996,1.0249,5.521,1.104,35.156
319.015132275,-0.0215,0.0977,1.0166,5.526,1.11,35.156
319.115088075,-0.0186,0.0986,1.02,5.521,1.11,35.162
319.215107228,-0.0195,0.0981,1.0186,5.521,1.11,35.162
319.315100954,-0.02,0.0977,1.0171,5.521,1.115,35.162
319.415124847,-0.019,0.0986,1.022,5.521,1.115,35.162
319.515124776,-0.019,0.0996,1.0093,5.521,1.115,35.162
319.61512202,-0.019,0.0977,1.019,5.521,1.115,35.162
319.715117394,-0.0205,0.0981,1.0186,5.521,1.115,35.162
319.815111064,-0.0195,0.0981,1.0186,5.521,1.115,35.162
319.915124641,-0.02,0.0986,1.0181,5.515,1.121,35.162
320.015135922,-0.0181,0.0991,1.02,5.515,1.121,35.162
320.115126296,-0.02,0.0977,1.0146,5.515,1.121,35.162
320.215143596,-0.0239,0.0972,1.02,5.515,1.121,35.162
320.315150451,-0.02,0.0977,1.0195,5.51,1.126,35.162
320.415162046,-0.0205,0.0986,1.0229,5.51,1.126,35.162
320.515161401,-0.0205,0.0981,1.0142,5.51,1.132,35.162
320.61517281,-0.0195,0.0981,1.0181,5.51,1.126,35.162
320.715164257,-0.0205,0.0986,1.0156,5.51,1.132,35.167
320.815182241,-0.0171,0.0986,1.0186,5.51,1.132,35.167
320.915168725,-0.0215,0.0977,1.0156,5.51,1.132,35.167
321.015196598,-0.019,0.0981,1.0166,5.51,1.132,35.167
321.115178063,-0.0181,0.0986,1.0186,5.504,1.137,35.167
321.21519014,-0.02,0.0986,1.0176,5.51,1.137,35.167
321.315185828,-0.019,0.0996,1.0181,5.51,1.137,35.167
321.415188181,-0.0234,0.0977,1.0171,5.51,1.137,35.167
321.515203701,-0.02,0.0967,1.0117,5.51,1.137,35.167
321.615213647,-0.0215,0.0972,1.0078,5.51,1.143,35.162
321.715223001,-0.02,0.0977,1.021,5.51,1.132,35.162
321.815212224,-0.0225,0.0957,1.0127,5.504,1.137,35.167
321.915226374,-0.0215,0.0977,1.0254,5.504,1.143,35.167
322.015238598,-0.0181,0.1006,1.0181,5.51,1.143,35.167
322.115304099,-0.02,0.0981,1.0176,5.504,1.143,35.162
322.215289934,-0.0249,0.0962,1.0176,5.51,1.159,35.167
322.315297399,-0.0195,0.0991,1.0151,5.515,1.154,35.167
322.415302492,0.1001,0.1094,0.8179,6.119,2.346,37.65
322.515296511,0.0127,0.0493,1.2695,5.63,0.873,37.282
322.615312697,-0.1348,0.1484,0.8447,8.284,10.124,36.865
322.715638032,-0.2153,0.0322,0.9238,8.141,10.997,35.332
322.815641403,-0.0625,0.1836,0.9648,8.086,10.86,35.497
322.915652459,-0.3271,0.1045,1.0405,7.174,11.959,33.865
323.015652774,-0.2441,0.2046,1.0327,6.163,13.881,34.047
323.115640571,-0.2773,0.1172,0.9487,5.51,14.914,33.986
323.215636998,-2.6494,-1.478,5.311,6.29,10.871,31.926
323.315639925,-0.187,0.147,0.9873,5.735,11.97,32.108
323.41564435,-0.1675,0.0933,1.0098,5.235,9.641,32.305
323.51564922,-0.1416,0.0923,1.0532,4.949,8.141,32.333
323.615670387,-0.1582,0.0972,1.0,5.032,8.839,32.679
323.715697183,-0.1548,0.0967,0.9995,5.037,8.756,32.953
323.815682035,-0.1528,0.0967,1.0054,5.065,8.745,33.217
323.915682757,0.0361,-0.1294,1.064,5.213,8.086,33.322
324.015669108,-0.0869,0.2573,0.8604,15.15,1.296,29.279
324.115682923,0.1343,0.5059,0.9214,27.372,2.466,29.636
324.215678274,0.144,0.6045,1.021,29.938,0.511,26.169
324.315684015,0.1514,0.3677,0.5161,26.548,-1.038,23.956
324.415711866,0.104,0.5156,0.9946,21.077,-13.491,27.686
324.515684698,0.2612,0.3281,0.814,20.61,-7.822,39.913
324.615693697,0.2437,0.3423,1.0293,17.655,-5.455,44.561
324.715717325,-0.2271,0.3418,1.1016,14.722,-3.444,45.209
324.815723306,-0.1079,0.1777,1.0405,14.365,-3.192,53.289
324.915733101,0.1196,0.4473,1.4551,15.793,-2.153,61.913
325.015752489,-0.0732,0.3281,0.9907,18.237,4.005,67.176
325.115740599,0.1865,0.3296,0.9976,20.045,3.186,71.636
325.215737894,-0.0698,0.3979,0.7241,23.741,5.169,74.141
325.315770633,-0.1914,0.2412,0.8882,23.571,6.63,77.838
325.415751669,-0.1855,0.5513,0.8862,24.851,9.893,84.666
325.515757222,-0.3433,0.6616,1.3667,30.399,10.75,87.177
325.61578672,0.0098,0.6509,0.7896,29.993,6.422,86.237
325.71578044,-0.1445,0.3657,0.9434,24.384,2.016,87.209
325.815791309,0.209,0.4961,0.9326,24.263,-5.081,89.302
325.915789436,0.1128,0.4795,0.9893,22.588,-8.141,91.978
326.015798138,0.0874,0.3643,1.0547,17.287,-9.207,98.201
326.115800377,0.1763,0.2217,0.9404,10.497,-10.53,103.019
326.215798301,0.2915,0.0991,0.8857,3.719,-12.667,107.194
326.315811021,0.2251,0.0,0.7695,-0.154,-11.563,110.506
326.415819907,0.2368,0.0,0.6797,0.209,-11.179,112.247
326.515809127,0.188,-0.0137,0.6797,0.011,-9.069,114.164
326.615820939,0.1201,0.1299,1.2778,0.868,-5.098,114.824
326.715826269,0.0386,-0.0703,1.2065,-6.35,-1.642,115.417
326.815835248,-0.1367,-0.2227,0.8081,-8.866,-0.84,114.115
326.915892745,0.0054,-0.167,0.9985,-6.757,-0.456,112.61
327.015843816,0.248,-0.0977,0.6567,-8.41,1.714,115.01
327.115853314,-0.0767,-0.1675,1.1021,-12.442,3.395,113.747
327.21587994,-0.1665,-0.1494,1.0063,-7.103,6.081,112.945
327.315876789,-0.0254,-0.1055,1.2729,-4.131,6.625,113.209
327.415888323,-0.1924,0.019,1.0928,-1.631,10.432,113.533
327.515864393,-0.2637,-0.0664,1.1318,-1.851,10.668,112.379
327.615895834,-0.2275,0.0229,1.0737,2.346,12.502,111.039
327.715909553,-0.4072,-0.0205,0.8999,4.653,15.227,107.584
327.815902438,-0.3721,0.0684,0.791,7.454,16.87,104.865
327.915911212,-0.3105,0.1118,0.897,7.789,18.089,105.007
328.015916375,-0.3164,0.2109,0.9482,8.553,17.803,107.067
328.11592839,-0.3389,0.1719,0.8276,7.284,19.138,108.836
328.215952312,-0.2764,0.1157,0.979,5.438,19.067,108.896
328.315959661,-0.1646,0.0215,0.7563,4.021,18.232,109.677
328.415990397,-0.3828,-0.1543,0.8306,1.89,17.122,110.44
328.516014022,-0.2749,0.0054,1.1328,1.78,15.331,114.181
328.61598974,-0.478,-0.0376,0.6094,3.554,20.594,116.922
328.716018624,-0.186,0.4058,1.063,6.422,18.441,121.965
328.816004972,-0.3413,0.2329,0.7852,4.845,19.144,120.498
328.91602043,-0.356,-0.0752,1.0557,-2.032,18.204,115.433
329.016017759,-0.2891,-0.0195,1.0547,-3.609,16.518,114.835
329.116042569,-0.1899,0.0161,1.0732,-1.522,13.574,116.411
329.216044306,-0.1367,-0.0146,1.0781,0.022,11.365,118.537
329.316022338,-0.0474,-0.0088,0.9312,-0.093,9.756,122.531
329.41600874,-0.0488,-0.0229,0.8594,0.143,8.553,127.974
329.516030846,-0.0322,0.1104,1.1099,0.258,4.268,136.56
329.616056489,-0.0952,0.0142,1.1216,0.038,0.879,144.805
329.716076928,0.0352,0.0566,1.0742,-1.549,-2.28,152.446
329.816057608,0.062,-0.0132,0.8071,-6.641,-5.576,158.752
329.916041288,0.1768,0.0103,1.0332,-7.932,-7.311,164.29
330.016112709,0.1401,0.061,0.9805,-4.054,-4.356,168.47
330.116067981,-0.0508,0.2798,0.772,-3.01,-3.807,173.485
330.21606105,0.2256,-0.0669,1.1675,0.324,-4.257,175.166
330.316075823,0.2168,-0.0054,1.0,5.63,0.445,177.188
330.41610278,0.1904,0.1719,0.873,6.427,2.401,177.786
330.516100718,0.1206,-0.083,0.9614,2.214,1.582,175.139
330.616254564,0.0767,-0.1069,1.002,-1.961,-0.714,175.496
330.716237299,0.0269,-0.1562,1.0059,-5.757,-3.51,178.149
330.816254922,0.0728,-0.1084,1.0508,-7.855,-6.729,-176.721
330.916241398,0.1206,-0.083,1.0547,-6.932,-9.267,-170.228
331.016236892,0.0957,-0.0874,1.0752,-5.07,-9.124,-162.257
331.116265608,0.1445,0.0161,1.2295,-3.79,-7.487,-153.342
331.216274917,0.1577,0.0283,0.9175,-2.455,-6.224,-147.596
331.316266522,0.062,-0.0815,1.2295,-3.071,-9.267,-144.575
331.416264033,0.0986,0.0181,0.9111,0.022,-7.625,-138.571
331.516263212,0.0728,-0.1157,0.9902,-0.566,-3.631,-131.111
331.616264038,0.085,-0.082,1.104,4.96,3.554,-121.624
331.716279957,0.1035,0.1035,0.9976,4.741,2.093,-116.62
331.816279561,0.0117,0.0044,1.0029,-2.834,3.785,-109.792
331.916291018,0.0879,0.0771,0.9414,-1.615,4.241,-98.778
332.016281418,0.0874,-0.0811,0.8687,-4.477,2.499,-89.566
332.116289745,-0.0952,-0.2808,0.9282,-6.746,2.433,-83.243
332.216282923,-0.3521,-0.2476,0.7041,-0.187,5.62,-81.299
332.316321953,-0.1328,0.1143,1.4014,0.148,3.631,-79.228
332.416306853,0.0688,0.2632,1.082,2.543,1.285,-78.349
332.516309216,-0.0576,0.1147,0.9648,0.428,2.005,-79.887
332.61630969,-0.1616,-0.0425,0.7998,-0.066,2.582,-82.628
332.716328515,-0.0825,-0.0625,0.8721,-1.445,2.439,-84.639
332.8163266,-0.0713,-0.1411,0.8267,-0.478,3.109,-87.561
332.91633063,-0.0112,-0.1143,1.084,-0.725,0.742,-89.121
333.016324252,0.2432,0.0576,1.2139,-1.318,-2.988,-87.248
333.116319911,0.1758,0.0688,1.3052,-1.494,-3.4,-84.271
333.216332051,0.0791,-0.0459,1.0562,-3.4,-0.297,-81.205
333.316331155,0.022,-0.1665,0.791,-4.752,1.428,-77.986
333.416352146,0.0249,-0.1304,0.8677,-3.675,3.922,-75.207
333.516362268,-0.0264,-0.0186,1.0396,-3.367,6.443,-75.059
333.616359259,-0.1313,0.0029,1.147,-4.708,8.13,-77.141
333.716363529,-0.145,0.0928,1.0649,-3.549,9.723,-79.085
333.81635978,-0.0645,-0.1455,0.9746,-6.235,6.46,-82.381
333.916372882,0.0063,-0.1167,0.9082,-7.344,4.087,-82.458
334.016379818,-0.0225,0.0024,0.8745,-4.993,4.318,-82.397
334.116374625,-0.0127,0.0132,1.1611,-5.488,3.752,-80.607
334.216370783,0.126,0.1577,1.189,-4.411,2.681,-76.685
334.316389664,0.061,-0.0137,1.2505,-4.878,0.406,-75.02
334.416381192,-0.0112,-0.0918,0.8911,-2.192,-0.582,-73.521
334.516409016,-0.0503,-0.2373,0.7749,-2.45,0.005,-73.312
334.616389303,-0.4009,-0.3184,1.2749,-3.944,-0.066,-75.267
334.716407812,0.0635,-0.2041,1.313,-7.971,-4.384,-80.739
334.816409933,-0.0054,-0.0542,0.9673,-9.47,-3.494,-89.379
334.916422942,0.0132,-0.1528,0.7217,-11.003,-1.994,-98.987
335.016418544,-0.1313,-0.1909,0.4072,-14.436,1.879,-108.259
335.116409146,-0.4165,-0.0752,0.918,-17.15,3.181,-109.407
335.216417563,-0.1221,-0.0176,0.8379,-18.825,5.065,-113.659
335.316421776,-0.1963,-0.2744,1.2227,-21.594,4.098,-125.277
335.416424933,-0.0918,-0.2329,0.8706,-18.457,4.378,-136.395
335.51644272,-0.0552,-0.1206,1.1416,-15.244,2.28,-145.168
335.616438636,-0.0571,0.2769,0.9604,-7.581,6.01,-149.733
335.716428644,0.1479,0.0332,1.1592,2.131,-1.159,-151.04
335.816454968,0.1006,0.0938,0.9551,11.201,-7.581,-153.232
335.916490495,0.5562,0.4482,1.5796,16.216,-11.036,-152.628
336.016478504,0.3345,0.0117,0.7788,13.211,-8.163,-153.232
336.116494198,0.3057,0.1558,1.1196,2.516,-4.944,-148.002
336.216498151,0.1206,0.106,1.0947,-2.51,1.274,-142.537
336.316508456,-0.1621,-0.1157,0.8442,-2.302,6.762,-144.943
336.420159841,-0.1343,0.04,0.8647,0.786,8.959,-148.607
336.520220534,-0.126,-0.0684,1.2812,0.511,5.416,-155.808
336.62022819,-0.2041,-0.1426,0.9082,0.873,6.021,-164.68
336.720248421,-0.2368,-0.2329,1.0342,0.093,5.361,-175.237
336.820245151,-0.1138,-0.2324,1.0371,0.412,0.308,175.556
336.920261659,-0.1602,-0.0352,0.8457,0.873,0.055,171.661
337.020242185,-0.0176,0.1094,1.145,-1.642,-1.313,171.606
337.120254878,0.0332,0.0786,0.9917,-0.742,0.709,168.964
337.220245368,-0.0688,0.0005,1.0044,0.214,3.312,164.756
337.320254672,-0.2124,0.0459,0.9614,-1.796,6.449,158.379
337.42025679,-0.1514,0.1533,1.0469,-4.647,3.785,150.848
337.520262835,-0.2773,-0.1567,0.9019,-3.829,4.087,138.867
337.620267675,-0.2524,-0.1855,0.9629,-2.532,5.361,125.618
337.720274219,-0.1504,-0.1016,1.0986,-3.367,3.999,114.071
337.820290375,-0.1377,0.0034,0.8979,-4.768,5.339,105.26
337.920277938,-0.1069,-0.0215,1.0269,-6.004,4.515,96.301
338.020281815,-0.1934,-0.0723,1.0098,-3.807,7.196,86.171
338.120279748,-0.1128,0.0962,1.373,-2.845,8.481,77.097
338.220280737,-0.2314,-0.0718,0.9946,-2.027,9.739,67.901
338.320298096,-0.2437,-0.0532,0.7563,-2.274,11.646,63.479
338.420292288,-0.1001,0.1509,0.957,-2.318,12.722,62.787
338.520307239,-0.126,0.1494,1.1914,-3.625,13.074,59.903
338.620333505,-0.0503,0.0562,1.2725,-2.867,9.882,60.672
338.720335678,-0.1821,-0.1567,0.8853,-0.786,10.151,63.869
338.820370685,-0.1113,-0.1406,0.9009,0.901,8.74,70.422
338.920370191,-0.0029,0.1177,0.6719,3.455,8.284,76.075
339.020365531,-0.3149,-0.2949,0.9424,-3.071,3.895,76.201
339.120389778,-0.3984,0.0337,1.1162,-1.247,7.306,75.657
339.220395229,-0.2803,-0.0049,1.231,-0.851,7.174,72.916
339.320405902,-0.1343,0.0659,0.7891,0.406,8.86,72.625
339.420395686,-0.2456,0.1162,0.7236,-0.319,13.749,71.389
339.52040284,-0.1538,0.2021,1.0918,-2.895,8.855,69.06
339.620404253,0.0288,0.0889,1.5137,-5.021,1.758,68.846
339.720399852,-0.0557,-0.0366,0.8408,-1.049,3.17,70.785
339.820459024,0.0737,-0.1357,0.7671,0.28,0.939,74.026
339.920413752,-0.251,-0.208,0.4102,-2.598,-0.698,75.333
340.020435573,0.1216,-0.1436,1.3374,-8.597,-6.812,74.949
340.12041282,0.1606,0.1514,1.1929,-2.06,-2.587,70.323
340.220443622,0.145,-0.0234,1.1343,-0.461,-3.977,65.951
340.320480813,-0.0093,-0.1177,0.7329,-2.186,-0.522,63.094
340.420519485,-0.042,-0.0654,0.9824,-2.422,2.411,61.771
340.52050049,0.1411,0.083,1.3906,-2.472,-0.044,65.682
340.620492014,0.0933,0.0811,1.2202,-0.873,0.478,72.872
340.720504093,0.0669,0.0166,0.7949,1.236,0.786,79.014
340.82053108,0.0322,-0.0386,0.7041,-2.076,1.857,81.343
340.920536918,-0.0596,-0.0405,1.144,-8.987,0.302,78.486
341.020535905,-0.0508,-0.0762,1.0356,-9.229,2.131,73.949
341.12054491,0.0698,0.0112,1.1221,-2.087,3.9,72.828
341.220553063,-0.0977,-0.1455,0.8213,-0.335,3.851,71.532
341.320563439,-0.1396,-0.0557,1.0195,-2.543,2.961,71.9
341.420563314,-0.0991,0.0527,1.0078,-3.356,2.444,72.197
341.520556392,-0.0371,0.1396,1.272,-5.07,2.774,74.85
341.620573952,-0.1699,-0.0977,0.7485,-0.654,5.713,71.367
341.720591475,0.0137,-0.0332,0.998,0.632,1.73,67.451
341.820584295,-0.1396,-0.0654,0.9648,-1.203,0.231,62.397
341.920591595,-0.2231,-0.0825,1.2183,-4.191,-1.137,55.673
342.020593526,-0.3228,-0.0073,0.9858,-2.703,2.318,47.626
342.120593771,0.0679,0.0557,1.2231,-3.961,-1.362,39.968
342.220611702,0.0435,0.0869,0.8491,-5.059,-1.45,31.729
342.320600706,-0.1152,0.0376,0.9424,-6.449,-0.401,22.445
342.420613173,0.0303,-0.0254,1.2734,-4.922,-0.978,14.7
342.52061014,0.0186,0.207,0.9521,-0.89,2.274,9.827
342.620610625,-0.1274,-0.1909,0.7207,0.088,1.851,2.615
342.720612925,-0.1602,-0.0005,0.8555,1.741,3.549,-5.554
342.820618984,-0.2036,0.0522,1.1494,1.829,5.477,-16.891
342.920609488,-0.5352,-0.3213,1.1172,0.555,9.261,-28.658
343.0206254,-0.0918,0.1934,0.9443,4.883,12.437,-35.431
343.120616366,-0.1646,0.1274,1.0273,0.038,12.607,-45.099
343.220618296,-0.0684,0.2515,1.2573,-2.659,11.464,-47.175
343.320626726,-0.103,0.1509,0.7603,1.67,13.288,-44.0
343.420627414,-0.0132,-0.0405,0.9014,2.461,7.707,-41.737
343.520639177,-0.124,-0.0562,1.104,2.164,4.603,-45.187
343.620634661,-0.1953,0.02,0.9243,2.889,8.481,-49.098
343.720676665,-0.0737,0.0347,1.2168,5.257,7.537,-52.817
343.820679205,-0.0122,0.0293,0.8701,6.262,7.427,-56.81
343.920692782,0.1284,-0.0005,0.9561,2.549,5.235,-64.006
344.020681082,0.063,-0.0347,1.2471,-2.411,0.945,-69.164
344.120689548,0.0781,0.0381,1.2769,-2.906,0.352,-65.825
344.220693533,0.2012,0.3096,1.1201,-0.242,0.621,-58.656
344.320692202,0.0034,-0.1948,0.7495,-0.978,-0.016,-55.327
344.42070352,0.0249,-0.2422,0.8267,-2.049,0.198,-51.191
344.520705671,0.0825,-0.1538,0.917,-2.373,-0.593,-48.873
344.620718173,0.0767,-0.2222,1.27,-4.905,-1.505,-49.241
344.720766213,0.144,0.0542,1.4468,-2.977,-3.005,-47.637
344.820748826,0.0078,-0.0518,0.8193,-1.511,0.401,-44.11
344.920762829,0.0244,0.0527,0.8643,-3.241,0.846,-41.765
345.020780276,0.0381,0.0864,0.9604,-5.488,1.192,-42.72
345.120771112,-0.2065,-0.1021,1.2852,-3.796,6.213,-41.819
345.220762966,0.0239,0.2739,1.1621,1.307,7.883,-34.448
345.320795747,-0.0732,-0.0244,0.7705,1.555,7.69,-30.3
345.420844915,-0.0747,-0.0186,0.7773,-1.236,5.191,-27.246
345.520864473,-0.0952,-0.1333,0.6206,-2.197,2.054,-27.532
345.620875493,0.0039,-0.1963,1.4243,-2.615,-1.28,-30.515
345.72089094,-0.0801,0.0557,1.563,-1.412,3.521,-32.08
345.820884645,-0.0063,0.2314,1.2954,0.28,5.598,-32.498
345.920884721,-0.022,0.0244,0.7627,-0.088,5.779,-34.656
346.020894594,-0.0195,0.1177,0.8311,-2.197,6.108,-36.931
346.120886077,-0.0439,0.0854,1.0986,-3.669,4.625,-39.271
346.220914894,0.0337,0.0913,1.3423,-2.472,0.972,-37.37
346.320909025,0.1118,0.1621,1.0996,1.324,1.335,-33.415
346.420913897,0.062,-0.0781,0.9946,2.082,2.148,-30.487
346.52091425,-0.0361,-0.0991,0.7515,2.049,5.537,-28.12
346.620933696,-0.0327,-0.1201,1.0405,0.363,5.927,-29.295
346.720924716,-0.1338,-0.0327,1.042,-1.555,8.882,-33.536
346.820925458,-0.0215,0.2832,1.3535,0.176,8.866,-37.48
346.920946293,-0.0371,0.0938,0.9731,1.615,7.295,-42.451
347.020981905,-0.0127,-0.0234,0.9189,-1.038,4.164,-47.34
347.120962314,0.0244,0.2568,0.9175,-2.494,3.801,-49.576
347.220959093,-0.1016,0.0674,1.0005,-3.598,-0.247,-52.361
347.320958594,-0.0513,-0.0322,0.9038,1.181,0.945,-58.074
347.420962854,-0.022,-0.0806,0.9292,4.905,1.5,-69.011
347.520976614,0.0366,0.0049,0.9277,4.208,0.873,-80.837
347.620982948,0.0483,0.0063,1.0576,3.939,-0.912,-95.081
347.720988042,-0.0273,0.0864,1.0605,3.933,-1.544,-110.698
347.821010302,-0.1064,0.229,1.1797,5.01,-1.417,-126.156
347.920992302,-0.2598,-0.1196,1.0479,4.845,1.725,-140.839
348.021017322,-0.1494,-0.0796,1.0049,3.658,4.883,-151.002
348.121004137,-0.0151,-0.1079,1.1172,0.879,4.208,-158.934
348.221011249,-0.1167,-0.2871,0.9785,-1.538,4.845,-163.696
348.321007509,-0.0728,-0.249,0.9355,-2.73,5.466,-167.305
348.421010935,0.02,-0.1074,0.9155,-2.999,5.477,-173.573
348.521011953,0.1357,-0.0298,0.9717,-4.34,4.548,179.225
348.621010417,0.0674,-0.0581,1.1899,-6.334,3.664,173.496
348.721013731,-0.0742,0.0493,0.9526,-7.614,6.411,170.848
348.821020528,0.1714,0.0361,1.0234,-12.041,0.851,170.035
348.921016732,0.0776,-0.1333,1.0068,-15.035,-2.34,166.097
349.021024269,-0.0444,-0.2188,1.0967,-16.106,-1.818,161.422
349.121032325,-0.1353,-0.0532,1.1309,-15.688,-1.824,158.121
349.221046639,-0.2349,-0.1963,0.77,-13.694,-0.044,152.6
349.321047251,-0.1406,-0.4639,1.1152,-10.975,-0.154,146.569
349.421063084,-0.1196,-0.2241,1.0767,-5.856,3.708,137.032
349.521077435,0.2808,-0.0889,0.9951,-9.003,6.312,120.13
349.621057805,0.2021,-0.2983,1.1445,-13.48,3.203,100.453
349.721063693,0.0903,-0.145,1.0513,-14.041,3.356,87.786
349.821061156,-0.0586,-0.2158,0.8682,-11.19,2.422,76.888
349.921071396,-0.0557,-0.1313,0.9434,-8.416,-0.159,67.83
350.021063544,-0.3291,-0.4302,1.0581,-4.73,-2.054,63.281
350.121132821,0.3228,0.3418,1.0176,-2.137,-0.456,75.663
350.221125876,0.1245,0.0488,0.7329,-1.494,1.725,73.641
350.321140431,0.4248,0.2075,1.0996,-6.394,-0.912,66.852
350.421147301,-0.2178,-0.3398,1.147,-9.525,-1.148,56.871
350.521182818,-0.2603,-0.1294,1.1528,-9.476,0.522,55.201
350.621205669,-0.269,-0.1626,1.1216,-9.844,-2.192,54.91
350.721210742,0.0566,-0.1191,1.022,-11.569,-7.559,54.432
350.821251704,0.0806,-0.3618,0.8267,-16.111,-5.4,45.824
350.921228499,-0.1069,-0.4854,0.5923,-16.304,-0.439,35.387
351.02123722,-0.1377,-0.3555,0.8906,-17.518,2.626,27.482
351.121238386,-0.0659,-0.0962,0.8569,-12.98,5.12,22.533
351.22122557,-0.1367,-0.1543,1.0972,-10.305,5.142,14.892
351.321234421,0.0947,-0.0981,1.1548,-8.679,2.856,6.279
351.421247567,0.1724,-0.0815,1.1362,-7.13,1.84,-1.692
351.521238714,0.0508,-0.1152,1.0098,-7.46,0.0,-8.882
351.62125036,-0.0063,-0.1973,1.0234,-7.866,-3.807,-16.507
351.721263748,0.0879,-0.1333,0.9507,-7.993,-7.059,-24.395
351.82125645,0.1162,-0.106,1.0444,-8.789,-6.026,-31.328
351.921265856,0.0718,-0.2236,1.0605,-7.619,-4.202,-36.458
352.021263298,0.0298,-0.082,0.9438,-4.219,-2.208,-40.259
352.121263612,-0.0015,-0.1338,0.9912,-4.741,-1.653,-46.219
352.221264814,0.0479,-0.0991,0.9272,-5.493,-1.84,-52.399
352.321273979,0.082,-0.0967,0.9814,-6.46,-2.785,-58.26
352.421279106,0.1338,-0.1294,1.0249,-7.526,-4.048,-64.116
352.521282993,0.0586,-0.1719,0.8379,-7.52,-4.274,-69.593
352.621303935,0.1479,-0.2114,1.1274,-7.361,-5.955,-74.158
352.721326489,0.165,-0.1729,1.1543,-7.213,-5.784,-77.772
352.821313172,0.064,-0.0688,0.9585,-6.251,-4.235,-81.2
352.921333966,0.0635,-0.0781,1.0327,-5.641,-3.779,-84.935
353.021385927,0.062,-0.0835,1.0479,-5.07,-3.636,-89.203
353.121364684,0.0859,-0.1265,1.0552,-5.12,-3.68,-93.483
353.221368441,0.0815,-0.0791,0.9873,-5.026,-3.505,-96.932
353.321367457,0.084,-0.0674,1.0522,-4.894,-3.84,-100.421
353.421366769,0.0386,-0.1099,0.9565,-4.911,-3.439,-104.568
353.521376507,0.1035,-0.1274,1.0625,-5.356,-4.213,-108.215
353.621395004,0.0571,-0.0854,0.9785,-5.361,-3.955,-111.396
353.721402205,0.1133,-0.0811,1.0337,-5.367,-4.186,-114.681
353.821403536,0.127,-0.082,1.0566,-5.334,-4.389,-117.751
353.921408607,0.083,-0.085,1.0298,-4.922,-4.422,-120.586
354.02141466,0.0586,-0.0767,1.0039,-4.438,-4.334,-123.058
354.121423231,0.0649,-0.0898,0.9961,-4.356,-4.581,-125.76
354.221420636,0.1147,-0.1284,1.0381,-4.861,-5.312,-128.491
354.321423559,0.0952,-0.1147,0.9976,-5.098,-5.284,-130.864
354.42147176,0.0933,-0.1011,0.9897,-5.037,-5.219,-132.957
354.521434016,0.085,-0.1274,1.0708,-5.18,-4.905,-135.115
354.621443549,0.106,-0.1387,1.021,-5.559,-4.988,-137.609
354.721449324,0.1606,-0.1738,1.1616,-7.575,-5.504,-140.636
354.821445895,-0.0376,-0.394,0.814,-9.459,-3.961,-145.327
354.921448984,0.21,-0.2817,0.9858,-12.645,-5.493,-144.399
355.021463296,0.2046,-0.2422,0.9683,-12.618,-7.295,-141.35
355.121458792,0.1958,-0.1836,0.9463,-12.376,-6.823,-141.119
355.221465937,0.04,-0.25,0.9766,-11.036,-6.669,-141.158
355.32148423,0.1294,-0.2246,0.9116,-10.712,-5.889,-142.399
355.42147943,0.2544,-0.2339,1.0107,-10.981,-7.158,-142.081
355.521473352,0.0884,-0.1885,1.0259,-11.574,-6.086,-141.586
355.621482089,0.1792,-0.1299,1.085,-10.679,-5.696,-143.201
355.721488659,0.0664,-0.2573,0.9429,-10.552,-3.68,-145.618
355.821487767,0.103,-0.1626,0.9678,-11.245,-2.988,-145.085
355.921492504,0.1548,-0.2354,1.0483,-12.25,-3.307,-145.195
356.021491778,0.1211,-0.2241,1.1724,-13.2,-5.004,-145.448
356.121508181,0.1035,-0.2681,1.0522,-13.024,-6.152,-145.118
356.221506418,0.1055,-0.2427,1.0103,-13.195,-6.24,-145.371
356.321503007,0.02,-0.2124,0.7607,-11.799,-5.773,-145.031
356.421514558,0.2769,-0.1211,1.0049,-11.733,-9.734,-144.871
356.521542961,0.2139,-0.2314,1.0376,-10.844,-10.322,-146.624
356.621552253,0.2026,-0.2524,1.1831,-9.63,-9.124,-147.415
356.721547564,0.0195,-0.2109,1.0879,-8.273,-4.839,-146.261
356.821564059,-0.0449,-0.1089,1.0044,-8.866,-2.175,-143.234
356.921597981,-0.1226,-0.1758,1.0234,-12.277,1.329,-140.433
357.021597884,-0.0815,-0.2261,1.1055,-16.216,4.669,-138.884
357.121641195,-0.1284,-0.3184,0.8633,-18.77,8.058,-136.653
357.221660357,-0.1768,-0.2866,0.667,-19.468,11.86,-132.512
357.321716205,-0.0825,-0.3193,1.0864,-17.479,12.003,-126.42
357.421719626,-0.1641,-0.2881,1.0547,-12.162,8.454,-121.273
357.521716158,-0.0376,-0.145,1.1978,-10.591,3.472,-118.163
357.621738394,-0.1895,-0.3677,1.0942,-9.706,0.461,-118.96
357.723140577,0.0469,-0.3418,1.2051,-13.282,-3.483,-113.835
357.823156405,0.2676,-0.1304,1.1113,-13.409,-4.169,-111.066
357.923172622,0.0874,-0.1714,1.0435,-7.718,-2.725,-113.5
358.023189895,0.0698,-0.2095,0.9902,-4.807,-0.489,-113.483
358.123161872,0.0278,-0.1567,1.042,-6.855,-1.445,-112.088
358.223167811,0.0376,-0.1973,0.9351,-5.713,-1.675,-112.225
358.323174603,0.1299,-0.126,1.0796,-5.537,-2.302,-111.923
358.423171523,0.0703,-0.1123,1.0464,-4.362,-3.203,-112.632
358.523170574,-0.0835,-0.084,0.9321,-2.307,-2.571,-115.922
358.623194883,0.0996,0.0869,1.0269,-1.126,-1.346,-117.697
358.723200878,-0.0479,-0.0557,1.1782,-1.857,-0.461,-122.69
358.823184909,-0.1299,0.062,0.981,-1.637,1.604,-126.617
358.923215552,-0.2075,-0.1958,1.0234,-3.988,2.043,-132.264
359.023224584,-0.0942,-0.1548,1.0127,-5.334,2.972,-133.682
359.123227875,-0.2046,-0.2051,1.0186,-5.565,3.873,-134.121
359.223238351,-0.3452,-0.0679,0.8457,-5.878,5.383,-135.648
359.32323229,-0.189,-0.0249,0.853,-7.169,6.982,-137.554
359.42326534,-0.2485,-0.2012,0.9756,-6.998,6.866,-139.285
359.52327876,-0.144,-0.2075,1.0156,-6.757,6.306,-140.889
359.62328505,-0.0894,-0.1338,1.0576,-6.63,5.779,-141.312
359.723304693,-0.1382,-0.1616,0.9121,-6.592,6.345,-142.91
359.823291779,-0.1665,-0.2793,1.0635,-7.91,5.713,-145.371
359.92328994,-0.1304,-0.1738,0.9282,-6.663,6.306,-145.783
360.023292656,-0.1255,-0.1548,0.9844,-7.031,6.564,-146.981
360.123313595,-0.0786,-0.1519,1.0063,-7.559,6.174,-148.524
360.223308959,-0.0698,-0.1929,1.1138,-7.712,5.532,-149.046
360.323327768,-0.0542,-0.1685,1.0298,-7.35,5.779,-149.26
360.423325669,-0.0127,-0.1699,1.0576,-8.196,5.592,-149.529
360.523331441,-0.0767,-0.1831,0.9404,-8.377,6.097,-149.788
360.62334212,-0.1382,-0.2266,1.0645,-7.965,6.284,-149.711
360.723356836,-0.1064,-0.124,1.0171,-7.125,6.674,-149.436
360.823368218,-0.1558,-0.1846,1.0361,-7.081,6.696,-150.227
360.923392212,-0.0703,-0.0806,1.0571,-6.081,6.987,-150.546
361.023377687,-0.0708,-0.1279,1.04,-6.367,7.048,-151.793
361.123382884,-0.0957,-0.1421,0.98,-6.432,7.355,-152.518
361.223398415,-0.1309,-0.1377,0.9492,-6.284,7.916,-153.55
361.323378723,-0.1455,-0.1523,0.9678,-5.988,8.069,-155.314
361.423400624,-0.1729,-0.1562,1.0327,-5.334,7.74,-156.385
361.523434339,-0.1338,-0.1187,1.0757,-5.021,7.471,-156.901
361.623417184,-0.1074,-0.1279,1.0649,-5.839,7.141,-157.901
361.723446011,-0.147,-0.1484,0.9536,-6.262,7.493,-158.566
361.823468504,-0.1372,-0.1489,1.02,-6.905,7.048,-158.912
361.923474942,-0.1123,-0.1387,1.0942,-6.938,6.191,-159.093
362.023478342,-0.1011,-0.1538,1.0498,-7.328,5.559,-159.857
362.123472409,-0.0581,-0.1416,0.98,-7.641,4.894,-160.411
362.22348531,-0.0576,-0.0981,0.979,-7.872,4.307,-160.862
362.323502896,-0.0259,-0.0454,1.0591,-8.289,2.0,-163.191
362.42351187,-0.0347,-0.0649,0.8682,-7.498,-0.231,-169.547
362.523501436,0.1167,-0.1782,1.0176,-8.536,-6.125,-177.616
362.623519077,0.3062,-0.1851,1.1709,-8.438,-11.03,174.348
362.723528311,0.2378,-0.2456,0.959,-6.949,-10.508,168.563
362.823538303,0.2524,-0.1802,1.0195,-6.559,-11.618,167.855
362.923529907,0.1929,-0.0903,1.0063,-6.284,-9.756,170.085
363.0235984,0.0264,-0.0459,0.9512,-4.735,-8.135,171.348
363.123581578,0.2212,-0.0723,1.1538,-6.855,-9.761,172.359
363.223605978,0.1084,-0.0439,0.8047,-6.553,-8.174,172.617
363.32359747,0.1533,-0.3569,1.1367,-10.278,-8.877,171.953
363.423626259,0.0127,-0.0586,0.9014,-8.525,-7.35,171.722
363.523604214,0.1558,-0.1616,0.9639,-8.817,-7.218,172.639
363.623607762,0.042,-0.2881,0.8848,-9.602,-9.487,171.26
363.723609384,0.0986,-0.3604,1.2251,-12.849,-10.695,170.123
363.82362708,0.1167,-0.2559,1.083,-9.218,-9.772,168.514
363.923630831,0.2378,-0.0386,0.832,-4.757,-9.717,168.278
364.023647138,0.1641,-0.0957,0.9795,-4.603,-12.162,165.278
364.123631908,0.3555,0.0786,0.9424,-2.554,-13.815,161.472
364.223655271,0.1758,-0.0508,0.8535,0.577,-12.849,157.363
364.323652504,0.2349,-0.0576,1.064,2.252,-13.063,153.814
364.423668903,0.1626,0.0498,0.8838,5.455,-13.315,152.133
364.523685043,0.2861,0.2485,0.9336,7.652,-14.722,153.732
364.623676979,0.166,0.1172,1.0938,8.317,-14.469,155.94
364.723661748,-0.0474,0.165,1.0757,10.344,-13.063,158.604
364.823664462,-0.0444,0.2769,0.9009,13.749,-9.102,164.74
364.923676195,-0.0142,0.2637,0.8682,15.068,-7.322,172.595
365.023690335,0.0854,0.2881,1.0781,13.524,-8.19,-179.665
365.123702326,-0.0093,0.2803,1.02,14.634,-8.3,173.996
365.223728207,0.0923,0.248,0.8232,16.287,-8.674,169.206
365.32374318,0.0376,0.1694,0.8916,14.832,-8.707,165.377
365.42376882,-0.0005,0.2344,1.0303,12.832,-8.602,160.845
365.52375757,-0.1357,0.2256,0.855,14.689,-8.251,155.682
365.623782339,-0.1855,0.2354,0.6938,16.611,-5.328,153.067
365.723767312,-0.1899,-0.0664,0.9321,13.03,-2.769,152.21
365.823780877,-0.0239,-0.0532,1.2075,10.162,-1.609,153.111
365.923774183,0.3701,0.1128,1.1138,7.861,-2.439,151.738
366.02380223,0.0718,0.0508,1.2046,5.499,-3.944,146.162
366.123800129,0.0488,0.0811,1.043,6.976,-2.631,143.24
366.223813602,0.208,0.0723,0.688,8.751,-2.741,141.52
366.323789611,0.0,-0.0942,1.2729,4.521,-2.659,138.911
366.423827973,0.1675,0.0801,0.6519,5.164,1.791,139.07
366.523816371,-0.0703,-0.106,1.2231,-0.467,1.489,136.796
366.623811158,0.1626,0.2344,0.9062,-0.242,1.088,138.115
366.72383389,0.0293,0.02,1.0327,-0.884,-0.555,136.351
366.823824103,0.271,-0.1421,1.0244,-0.132,-1.84,135.95
366.923848019,0.2324,0.0117,1.166,-1.895,-2.148,135.456
367.023832195,0.0024,0.1299,0.9365,-0.676,-2.648,127.65
367.123861371,-0.3379,-0.0605,0.9165,0.071,-2.214,117.339
367.223842547,-0.3569,0.2734,1.0806,0.983,-0.236,110.143
367.323849612,-0.1807,0.2231,1.0342,3.082,-0.615,104.744
367.423861973,-0.2173,-0.1387,0.9707,3.109,-2.027,99.844
367.52384576,0.019,0.0137,0.7988,0.797,-1.796,97.652
367.623850324,0.1211,-0.1699,1.2754,-3.9,-2.95,93.043
367.723859129,-0.0654,-0.2998,1.0225,-3.208,-2.109,92.335
367.823855231,-0.0425,-0.2246,1.0688,-1.829,-0.143,96.779
367.923853666,0.1494,-0.0879,0.9443,1.044,-3.197,97.454
368.023857693,-0.1011,-0.022,0.9946,0.264,-5.037,95.004
368.123885887,0.1016,-0.1055,0.7725,-0.923,-2.494,97.493
368.223867063,0.4082,-0.2158,2.8164,-5.636,-3.532,102.118
368.323877849,0.0615,-0.2046,1.0991,-6.152,-9.146,102.678
368.423885506,0.0591,-0.1318,1.02,-3.197,-7.581,103.821
368.523932866,0.2148,0.0205,0.8701,0.895,-6.927,103.821
368.623937412,0.0459,0.0176,1.0957,-0.027,-7.46,101.981
368.723940532,-0.0571,-0.042,1.4326,1.752,-8.047,102.096
368.82395841,-0.0552,0.0757,1.104,4.252,-8.141,101.486
368.923985604,0.1807,0.0127,1.3442,0.203,-7.883,105.018
369.02399702,0.1099,-0.041,1.1235,3.812,-7.674,106.573
369.123994695,0.188,0.1558,0.957,12.03,-8.438,106.749
369.224027518,0.292,0.2197,1.1021,12.36,-8.943,108.144
369.323993897,0.0996,0.2168,0.9492,15.947,-10.377,109.407
369.423985942,0.1802,0.2935,0.9658,17.056,-9.064,112.786
369.523997061,0.0996,0.4028,1.0698,16.21,-8.278,114.829
369.623985273,0.0674,0.25,0.9746,12.074,-6.74,115.016
369.7239833,0.0981,0.2559,1.043,12.486,-6.905,114.379
369.824004326,0.1514,0.2549,1.167,13.42,-6.037,113.714
369.924004334,0.0601,0.1362,1.063,14.952,-6.597,113.297
370.024020713,0.0127,0.1548,0.894,13.178,-5.482,115.554
370.123996906,-0.2749,0.0923,1.1714,11.261,3.829,116.938
370.224004525,-0.4375,0.2837,0.6318,13.37,8.685,119.493
370.324016311,-0.2383,0.0366,0.813,9.261,4.164,118.828
370.424028041,-0.2944,0.0625,0.8403,5.438,2.834,117.625
370.524056845,0.0591,-0.0063,1.2202,2.373,4.796,119.476
370.624058426,0.1494,0.1895,1.0137,3.34,4.642,122.723
370.724053415,0.3359,0.1187,1.3672,0.654,4.548,122.844
370.824065312,-0.0591,-0.0156,0.8096,4.411,2.104,117.477
370.924074616,-0.0347,0.0186,0.9888,10.426,-1.972,115.714
371.024085938,0.2876,0.146,1.1016,13.162,-5.048,115.356
371.124089816,-0.0601,0.3164,0.9961,10.151,0.286,112.912
371.224090324,-0.0015,0.1104,0.9355,8.959,-0.72,111.714
371.324092368,-0.064,0.249,0.957,7.982,-1.736,112.088
371.424089376,-0.0635,0.1704,0.9956,7.877,0.143,112.423
371.524107198,-0.0957,0.0376,0.8599,7.8,2.247,110.748
371.624092612,-0.1855,0.2207,0.9805,7.603,0.275,109.748
371.724097712,-0.0513,0.1143,1.2944,5.537,-0.522,110.594
371.824106145,-0.0562,-0.085,1.0161,3.318,0.016,109.111
371.924111393,-0.021,0.0908,0.6226,2.719,-3.373,108.358
372.024138937,-0.1064,-0.106,1.0889,0.549,0.181,106.309
372.124124389,-0.1094,-0.0913,0.8911,-0.494,-0.439,105.48
372.224115192,-0.1729,0.0225,1.1411,-2.659,0.22,105.958
372.3241262,0.4819,0.145,1.2041,1.049,-0.879,107.814
372.424128651,-0.0342,0.3145,0.7617,9.432,-0.725,105.123
372.524121639,-0.5366,-0.0898,2.0693,6.806,1.972,104.897
372.624125887,0.002,0.0264,0.5601,11.332,-2.736,105.139
372.724142967,0.0576,0.0952,1.0068,11.684,-5.641,106.172
372.824136826,0.0063,0.2422,1.0508,14.755,-5.147,106.002
372.924138574,-0.0215,0.4424,1.1133,19.237,-8.69,107.012
373.024163154,0.0747,0.3433,1.2617,19.572,-6.185,105.337
373.124159921,0.0317,0.3237,0.9824,18.809,-5.257,104.156
373.224163909,0.0068,0.4121,1.0918,18.457,-2.785,103.068
373.324179638,-0.0249,0.4214,0.833,20.715,-2.043,104.304
373.424178626,-0.0503,0.3857,0.8853,21.522,-1.967,104.568
373.524173984,0.0068,0.3691,0.9287,21.984,-2.538,104.255
373.62418025,0.0952,0.3271,0.874,22.247,-2.791,104.112
373.724178219,0.0684,0.4077,0.9863,22.412,-3.093,104.216
373.824175281,0.1094,0.5376,0.9321,22.709,-3.477,104.623
373.924195232,0.0591,0.4189,0.8921,23.148,-3.752,105.079
374.02419446,0.0356,0.5156,0.8862,23.538,-3.845,105.59
374.124198393,0.0762,0.4922,0.9258,23.791,-3.95,106.139
374.224211269,0.0103,0.4585,0.9219,23.989,-3.922,106.771
374.324193776,0.042,0.5039,0.7842,24.307,-4.016,107.397
374.424213985,0.0723,0.4199,0.9604,24.461,-3.867,108.1
374.524228862,0.0786,0.519,0.812,24.879,-4.032,108.825
374.624258646,0.1147,0.5098,0.877,25.164,-4.252,109.649
374.7242428,0.1353,0.5103,0.8618,25.411,-4.559,110.528
374.824249695,0.1069,0.4482,0.9321,25.318,-4.79,111.462
374.924237163,0.0776,0.5493,0.9741,25.538,-4.9,112.412
375.024270429,0.1289,0.4985,0.8794,25.757,-5.229,113.445
375.124278824,0.1406,0.5044,0.8438,25.944,-5.614,114.51
375.224295756,0.1343,0.583,0.9536,26.246,-5.872,115.686
375.324288058,0.1245,0.5698,0.9238,26.329,-6.169,116.856
375.424310175,0.1016,0.5088,0.8901,26.224,-6.537,117.938
375.524310699,0.1714,0.498,0.9478,26.065,-6.872,119.158
375.624296575,0.1104,0.5347,0.8921,26.142,-6.987,120.515
375.724336877,0.1587,0.4688,0.9463,26.312,-7.191,121.899
375.824335252,0.1108,0.4224,0.8613,26.417,-7.416,123.25
375.924338203,0.1211,0.5352,0.8848,26.439,-7.625,124.706
376.024346616,0.1704,0.52,0.9312,26.45,-7.806,126.183
376.124335454,0.125,0.4844,0.7856,26.334,-7.943,127.617
376.22433783,0.1855,0.4087,0.9463,26.202,-8.091,129.034
376.324343873,0.1963,0.4399,0.8887,26.208,-8.438,130.342
376.424353749,0.2544,0.5337,0.8911,26.301,-8.844,131.495
376.524367735,0.251,0.4927,0.9429,26.318,-9.113,132.605
376.624351703,0.2178,0.4785,0.8242,26.57,-9.514,133.671
376.724366746,0.2617,0.5601,0.9341,26.625,-9.871,134.857
376.824370806,0.2095,0.5312,0.8701,26.505,-10.179,135.873
376.924388645,0.2329,0.4326,1.0396,26.208,-10.432,136.912
377.024383391,0.1885,0.4561,0.8081,26.257,-10.426,137.928
377.124382433,0.2183,0.4751,0.8198,26.411,-10.629,138.917
377.224375624,0.1494,0.5952,0.8511,26.862,-10.937,139.592
377.324402221,0.1548,0.6611,0.8735,27.076,-11.53,140.317
377.424410152,0.2397,0.4839,0.8843,26.878,-12.195,141.059
377.524416583,0.2026,0.4834,0.6592,26.796,-13.03,141.592
377.624409088,0.2554,0.354,0.7778,26.169,-13.661,141.839
377.72441287,0.2578,0.2603,1.0127,25.851,-14.365,141.647
377.824422338,0.4004,0.46,1.001,25.911,-14.881,141.993
377.924416121,0.3989,0.6011,1.0625,26.115,-14.991,142.141
378.024415774,0.2598,0.5757,0.8901,26.164,-14.617,141.938
378.124413112,0.229,0.2979,0.8281,25.79,-14.079,141.317
378.224431895,0.2139,0.3682,0.8052,25.538,-13.749,140.63
378.324426899,0.1836,0.2119,0.7617,25.247,-13.519,140.175
378.424436959,0.2915,0.3105,0.7734,25.252,-13.59,139.916
378.524424519,0.2656,0.4858,0.9229,25.351,-13.793,139.29
378.624433524,0.2354,0.3467,0.9395,25.181,-13.76,138.741
378.724456843,0.3027,0.4438,0.9409,24.977,-13.986,137.911
378.824440107,0.2896,0.3003,0.8677,24.78,-14.03,137.296
378.924451741,0.2876,0.3853,0.9912,24.631,-14.084,136.989
379.024478468,0.3203,0.3965,0.8511,24.719,-14.2,136.522
379.124462991,0.25,0.4487,0.9312,24.664,-14.194,135.72
379.224460902,0.2949,0.3057,0.8716,24.434,-14.216,134.594
379.324526481,0.2847,0.3003,0.8662,24.17,-14.161,133.857
379.42452993,0.2285,0.3047,0.9521,23.89,-14.095,133.522
379.524537452,0.2695,0.3516,0.9546,23.725,-14.095,133.352
379.624543197,0.3037,0.3784,0.9365,23.698,-14.271,133.028
379.724557794,0.2842,0.4453,0.9302,23.857,-14.398,132.402
379.824566465,0.2422,0.3242,0.8276,23.829,-14.315,132.111
379.924559765,0.3003,0.436,0.9775,23.725,-14.359,131.874
380.024564343,0.3672,0.3901,0.8623,23.643,-14.073,131.001
380.124560829,0.2803,0.21,0.8325,23.829,-13.821,129.842
380.224580796,0.2153,0.3184,0.9995,23.346,-13.81,130.578
380.324590485,0.2563,0.4277,0.834,22.319,-12.722,131.358
380.424583674,0.2207,0.311,0.8486,21.16,-11.431,131.462
380.524591122,0.0957,0.3032,1.0688,17.628,-6.339,133.121
380.624585367,0.2305,0.2544,0.9927,14.409,-3.153,134.22
380.724595796,0.0762,0.2915,0.9912,12.623,-4.845,132.88
380.824603763,0.1523,0.1948,1.0625,11.085,-5.966,133.187
380.924602933,0.0669,0.1431,1.0415,9.135,-6.24,129.21
381.024625381,0.2183,0.1714,1.0332,8.745,-6.46,126.826
381.124650719,0.2402,0.4961,2.7803,5.977,-4.85,123.706
381.224646037,0.1543,0.1895,1.0176,7.619,-5.581,123.14
381.324663393,-0.021,0.0786,1.002,9.289,-2.532,126.293
381.424669674,0.1548,0.1587,0.9922,10.679,-2.609,133.11
381.524662307,0.2339,0.1406,0.9395,10.344,-2.516,136.994
381.62467294,0.2007,-0.0557,0.9277,8.02,0.06,141.075
381.724680665,-0.2148,-0.0615,0.9893,4.746,0.972,142.059
381.824678817,0.0586,0.061,1.1694,1.989,2.719,145.074
381.924701617,0.042,0.0078,1.0366,2.867,3.345,146.629
382.024719009,-0.106,0.0493,1.0454,6.026,5.169,149.227
382.12469029,-0.1567,0.0742,1.3149,4.021,5.334,149.595
382.224718775,-0.2251,0.1602,0.9697,3.576,8.004,150.249
382.324724223,-0.2661,-0.0669,1.1592,-0.11,8.866,146.338
382.42471467,-0.2417,0.0732,1.0757,1.351,9.805,145.508
382.524714581,-0.1763,-0.0054,0.9961,1.439,10.118,144.767
382.624735102,-0.2393,-0.0776,0.9512,0.725,9.382,143.657
382.724724161,-0.4092,-0.0083,0.9688,2.406,7.987,143.789
382.824720442,-0.0459,-0.064,1.0752,0.494,7.537,145.349
382.924738926,-0.3628,-0.043,0.9526,0.813,8.223,145.228
383.024756837,-0.2554,0.0713,1.0405,2.098,9.91,146.959
383.124741673,-0.2856,-0.0151,0.9805,0.582,12.623,147.233
383.22473975,-0.2622,0.1362,1.0615,0.275,13.101,146.986
383.324737623,-0.3682,-0.145,0.9165,-2.856,11.415,144.739
383.424747441,-0.1821,-0.0278,1.1074,-2.582,7.383,144.322
383.524762295,-0.1914,-0.123,1.062,-2.45,7.158,143.476
383.624766446,-0.1631,0.0347,1.0835,-2.027,7.086,143.405
383.724759042,-0.0571,0.083,1.0952,-1.483,6.389,143.992
383.824760137,-0.167,-0.0308,1.043,-1.236,5.702,143.52
383.924772843,-0.0879,-0.1162,0.8926,0.632,4.279,143.295
384.024783068,-0.1772,0.1973,1.0317,4.005,0.731,141.086
384.124785237,-0.0059,0.0044,0.9873,3.994,0.901,141.01
384.224791296,-0.0215,0.0317,1.0464,3.576,0.253,142.531
384.324798465,0.0957,0.2339,1.019,3.774,0.269,143.965
384.424802745,-0.145,-0.0615,1.2129,4.12,0.549,145.168
384.524820118,-0.0352,0.2588,1.0962,6.949,2.856,147.041
384.62483362,-0.0142,0.272,0.4712,14.502,3.68,147.524
384.72483103,-0.064,0.2236,1.0181,9.8,4.318,149.266
384.824841903,-0.1201,-0.0088,0.8198,5.999,6.119,149.095
384.92486122,-0.2129,0.1074,0.9985,3.164,9.849,150.139
385.024850722,-0.3013,0.124,0.9355,5.779,11.711,149.804
385.12485115,-0.0791,0.354,0.7764,17.957,5.636,151.089
385.224859394,-0.1074,0.4985,1.002,22.928,5.048,151.144
385.3248606,-0.1504,0.3037,0.791,22.571,5.301,149.87
385.424897157,-0.1484,0.3599,1.2261,18.512,2.966,151.452
385.524894437,-0.1074,0.3306,0.9209,19.429,2.543,153.138
385.624915606,-0.0117,0.4097,0.8965,21.764,2.236,154.056
385.725048015,-0.1494,0.3701,0.8892,21.665,2.884,153.611
385.825013351,-0.1182,0.3809,1.0039,20.775,2.703,153.968
385.925032871,-0.083,0.3315,0.9209,20.836,2.56,153.962
386.025042984,-0.0059,0.416,1.0332,21.286,2.192,154.528
386.12504682,-0.0811,0.3999,1.1045,20.984,2.197,154.402
386.225052933,-0.1724,0.2598,1.0098,19.352,2.258,155.352
386.325067324,0.0464,0.1924,0.9463,16.556,2.164,155.984
386.425076788,-0.1069,0.3193,1.0151,15.189,3.235,152.018
386.525080994,-0.105,0.1802,0.9336,17.287,3.51,151.76
386.62508331,-0.0635,0.2158,1.0928,15.491,3.241,151.732
386.725101164,-0.0093,0.3467,1.0718,13.986,2.17,151.452
386.825094517,-0.0439,0.0298,0.9409,10.206,-0.593,145.761
386.925094204,0.0054,0.2183,0.9443,13.629,-0.78,147.744
387.025099002,-0.0259,0.4053,0.9927,15.743,1.566,146.909
387.125097226,-0.106,0.2778,0.9795,17.04,2.582,144.492
387.22509982,-0.1167,0.2974,0.8765,19.874,5.109,145.261
387.325109544,-0.1362,0.4756,0.9399,19.726,6.356,148.519
387.425108379,-0.1118,0.29,1.0234,20.533,3.252,147.849
387.525104528,0.0005,0.2183,1.062,20.446,0.478,146.234
387.625112789,-0.1094,0.564,0.8667,22.961,-2.818,145.651
387.72511755,0.0542,0.2046,0.7544,25.071,1.082,150.392
387.825117032,-0.0537,0.5757,1.0425,24.598,-1.796,152.232
387.925127941,0.0957,0.3789,1.0537,24.203,-1.862,153.386
388.025129257,-0.0532,0.4004,0.7271,26.351,-3.56,152.045
388.125129907,0.1006,0.5654,0.7437,29.026,-6.356,148.365
388.225129779,-0.0288,0.5698,0.7485,29.125,-5.109,147.134
388.325144354,0.1919,0.6401,1.0117,26.631,-4.636,148.535
388.425146614,-0.019,0.3066,0.9873,22.577,-0.797,149.414
388.525149782,-0.2344,0.5024,0.8599,22.835,-1.522,146.92
388.625160579,-0.0171,0.2847,0.8989,21.528,-1.505,147.233
388.725172303,-0.0381,0.3301,1.2173,18.292,0.5,147.986
388.825172489,-0.0732,0.4814,1.1611,18.127,0.923,147.409
388.925179545,0.0386,0.1953,0.7158,18.232,0.945,146.624
389.025189232,-0.1689,0.2358,0.9116,17.397,1.346,146.168
389.125190029,-0.0063,0.3535,0.9995,17.496,1.296,145.706
389.225203104,0.019,0.207,1.1382,17.04,1.406,145.162
389.325210327,-0.0605,0.3145,0.9385,17.227,1.478,144.651
389.425213865,-0.0088,0.2256,1.0635,17.155,1.56,144.3
389.525224588,-0.001,0.2607,0.8286,17.281,1.549,143.992
389.625218348,-0.0596,0.2983,0.9194,16.99,1.538,143.767
389.725228071,-0.0181,0.209,0.9844,16.622,1.467,143.416
389.825233183,0.0078,0.2153,0.9712,16.414,1.494,143.19
389.925226998,-0.0635,0.2695,0.9014,16.32,1.505,142.987
390.025253073,-0.0103,0.1597,0.9302,16.425,1.544,142.685
390.125240129,-0.0581,0.2949,0.8569,16.578,1.56,142.427
390.225262945,-0.0596,0.2754,0.9165,16.518,1.538,142.114
390.325251724,0.0,0.1753,1.2124,16.1,1.533,141.976
390.425252502,-0.0996,0.2466,1.0059,16.419,1.434,141.96
390.525255484,0.0005,0.3286,0.9199,16.551,1.472,141.927
390.625272966,-0.0557,0.0938,0.8989,16.199,1.708,141.894
390.725286781,-0.0635,0.3096,0.8198,16.447,1.945,141.839
390.825268763,-0.0142,0.3091,0.7964,16.666,1.956,141.619
390.925279837,-0.0776,0.334,0.9399,15.925,2.005,141.257
391.025297634,-0.0527,0.3462,0.9868,15.963,2.01,140.707
391.125282634,0.0039,0.4551,1.1758,15.969,1.945,139.988
391.225306061,-0.0933,0.0908,0.9121,15.892,1.939,139.191
391.325303043,-0.0371,0.272,0.7974,15.969,1.747,138.768
391.425310135,-0.0811,0.2427,0.9858,15.48,1.604,138.329
391.52529758,-0.0312,0.2153,0.9834,15.304,1.434,138.06
391.625325265,-0.02,0.1387,1.1406,15.007,1.439,138.016
391.725318302,-0.0273,0.2593,0.8643,15.32,1.538,137.796
391.825323136,-0.0693,0.1914,0.8369,15.156,1.741,137.62
391.925357895,-0.0483,0.23,0.9238,15.222,1.796,137.488
392.02533358,0.0771,0.3232,0.9062,15.123,1.719,137.313
392.125337951,-0.085,0.313,1.001,14.727,1.846,136.989
392.225340784,-0.019,0.0781,0.9092,14.557,1.934,136.763
392.325367747,-0.0718,0.3442,0.9575,14.48,2.115,136.736
392.425361525,-0.0156,0.3823,1.021,14.249,2.258,136.544
392.525381451,-0.1094,0.2461,0.9346,14.073,2.697,136.302
392.625385636,-0.0278,0.2109,1.0234,13.975,2.977,136.225
392.725383154,-0.1685,0.1333,0.8452,13.964,3.208,136.055
392.825418358,-0.0947,0.1675,1.1079,13.793,3.29,136.033
392.925436283,-0.0703,0.2744,0.9824,13.854,3.219,136.241
393.025459265,-0.0771,0.3633,1.1616,13.76,3.257,136.483
393.125493598,-0.0889,0.3525,1.0396,14.024,3.472,136.934
393.225497968,-0.0522,0.2983,0.9556,14.178,3.653,137.615
393.325497431,-0.0146,0.1621,0.9658,14.238,3.653,138.483
393.425498819,-0.0405,0.2007,0.9883,14.134,3.433,139.823
393.525513652,-0.0522,0.1289,0.9004,13.964,3.12,141.378
393.625541318,0.0063,0.0796,0.98,13.876,2.856,143.152
393.725541596,-0.0073,0.2578,1.0488,13.771,2.686,144.366
393.825551669,-0.0386,0.1772,1.0708,13.59,2.675,143.558
393.925550521,-0.0435,0.2017,0.9492,13.618,2.67,141.718
394.025545798,-0.0098,0.3018,1.124,13.48,2.692,139.411
394.125552946,-0.0571,0.3164,1.0444,13.491,2.78,137.368
394.225556704,-0.02,0.2266,0.9185,13.607,2.791,135.884
394.325569037,-0.0063,0.3403,1.0527,13.519,2.741,134.676
394.425573185,-0.0933,0.2041,0.8838,13.634,2.725,133.813
394.525574017,-0.0244,0.1982,0.9443,13.601,2.823,133.193
394.625582109,-0.0654,0.0283,0.7769,13.749,2.961,132.578
394.725577145,-0.0957,0.292,0.6851,13.826,2.889,132.253
394.825623089,-0.0088,0.1685,0.8125,13.744,2.675,131.748
394.925615903,-0.0112,0.2734,1.0044,13.524,2.538,131.418
395.025613236,-0.105,0.3677,0.9688,13.744,2.664,131.199
395.125603901,0.0542,0.4912,1.0767,13.552,2.648,131.012
395.225615493,-0.0674,0.2466,1.0103,13.651,2.785,130.583
395.325620344,-0.0166,0.1401,0.9946,13.766,2.648,130.578
395.425622621,-0.0195,0.3262,0.7842,13.947,2.538,130.446
395.52562812,0.0454,0.3306,0.9316,13.931,2.521,130.457
395.625633304,-0.0625,0.1606,0.9146,13.766,2.384,130.193
395.725635562,-0.0293,0.3389,0.9751,13.837,2.34,130.073
395.825623487,-0.0508,0.2085,0.8433,14.035,2.39,129.941
395.925641523,-0.0112,0.1846,1.0488,13.848,2.368,129.716
396.025652374,-0.0356,0.1748,0.9307,13.931,2.401,129.567
396.125638354,-0.04,0.353,0.96,14.079,2.329,129.595
396.22564702,-0.0498,0.2295,0.9395,14.145,2.269,129.54
396.325642186,-0.0605,0.2393,1.0894,14.134,2.192,129.446
396.425664629,-0.0264,0.187,0.9771,14.332,2.082,129.265
396.525672553,0.0024,0.1074,1.0684,14.299,1.978,129.111
396.625710441,-0.0405,0.2148,0.8545,14.689,1.879,129.106
396.725700569,-0.0093,0.2456,0.9893,14.601,1.763,129.172
396.825674309,-0.0728,0.3604,1.0698,14.766,1.736,129.012
396.925682548,-0.022,0.3174,1.1084,14.788,1.791,128.958
397.025698028,-0.0039,0.2183,1.0801,14.749,1.807,128.947
397.125699656,-0.0684,0.1992,0.9751,14.782,1.675,128.979
397.225684748,-0.0513,0.0889,0.7891,14.892,1.472,129.166
397.325693561,-0.0474,0.2715,1.085,14.65,1.384,129.391
397.425732893,-0.0923,0.4214,1.1802,14.546,1.626,129.452
397.525752151,-0.0786,0.2954,1.0938,14.612,1.967,129.699
397.625769723,-0.0967,0.354,0.9116,14.788,2.23,129.952
397.725762166,-0.1411,0.3403,1.0107,14.7,2.56,130.193
397.825766349,-0.1411,0.1689,0.9766,14.892,2.796,130.622
397.92576244,-0.1304,0.334,0.8311,15.106,2.812,130.93
398.025761217,-0.0239,0.168,0.9663,14.87,2.736,131.094
398.125780622,-0.0049,0.1401,1.2539,14.65,2.598,131.243
398.225784973,0.0171,0.5503,1.2227,14.744,2.401,131.424
398.325778434,0.0439,0.457,1.0225,14.837,2.401,131.353
398.425783043,-0.0312,0.3188,1.0796,14.645,2.401,131.391
398.525792134,-0.1147,0.2876,0.9653,14.546,2.307,131.462
398.625784928,0.0024,0.1401,1.2056,14.354,2.296,131.803
398.725781556,-0.127,0.1177,0.9517,14.37,2.466,132.056
398.825797776,-0.1499,0.1611,0.9702,14.326,2.692,132.171
398.92579383,-0.0137,0.1694,0.7744,14.804,2.911,132.38
399.025809365,-0.1421,0.4731,0.8457,14.705,3.071,132.742
399.125799456,-0.1333,0.1973,1.187,14.156,2.95,132.885
399.225810899,-0.1118,0.1118,1.2344,13.843,2.796,133.253
399.325808693,0.0781,0.064,1.0039,14.123,2.703,133.588
399.425904821,-0.1147,0.4771,0.7671,14.332,2.521,133.77
399.525926022,0.0171,0.3389,1.1807,13.59,2.56,133.693
399.625899057,-0.0078,0.2246,1.1074,13.524,2.472,133.682
399.725944444,-0.0381,0.2417,0.9854,13.552,2.455,133.731
399.825959997,-0.0981,0.3276,0.9038,13.656,2.615,133.885
399.925946402,-0.0654,0.3662,0.8809,13.936,2.543,133.83
400.025956437,-0.0591,0.2124,1.1865,13.513,2.796,133.989
400.125964009,-0.0083,0.3564,1.312,13.376,2.791,134.028
400.225959563,-0.0728,0.3325,1.0205,13.667,2.714,134.214
400.325970227,0.0024,0.3398,1.2158,13.53,2.609,134.291
400.426012391,-0.0322,0.2378,1.0098,13.705,2.39,134.061
400.526006963,-0.0347,0.2075,0.9536,13.722,2.411,134.033
400.626029794,-0.0996,0.2715,0.8154,13.815,2.494,133.885
400.726013643,-0.0464,0.3042,0.9194,13.689,2.543,133.676
400.826014474,-0.1226,0.2471,0.9126,13.458,2.604,133.423
400.926038046,-0.0693,0.1387,1.0786,12.997,2.648,133.478
401.02603321,-0.0742,0.3032,1.1704,12.892,2.703,133.511
401.126047523,-0.0767,0.3291,1.145,12.865,2.862,133.281
401.226045798,-0.1675,0.1587,1.0801,12.799,3.076,133.11
401.326102129,-0.0449,0.2256,1.0605,12.733,3.224,132.962
401.426137015,-0.1323,0.1631,0.9282,12.953,3.312,132.929
401.526140068,-0.0962,0.1562,0.894,12.728,3.4,132.858
401.626259121,-0.0127,0.2969,1.2017,12.458,3.373,132.88
401.726348119,0.0068,0.1938,1.1162,12.601,3.29,133.0
401.826353579,-0.1001,0.2402,1.022,12.832,3.389,132.935
401.926331224,-0.1304,0.3794,1.1201,12.865,3.45,132.852
402.026361444,-0.0742,0.1509,0.8076,12.783,3.466,132.72
402.12633733,-0.0469,0.2007,0.8237,12.772,3.494,132.852
402.226348587,-0.1069,0.2466,0.8979,12.876,3.494,133.072
402.32634164,-0.0801,0.3198,1.021,12.964,3.625,133.374
402.426339322,-0.0762,0.3052,0.998,12.914,3.878,133.555
402.526341486,-0.1094,0.1909,1.1445,12.717,4.136,133.555
402.626346038,-0.085,0.2168,1.0029,12.689,4.268,133.594
402.726348258,-0.1064,0.2759,1.0098,12.629,4.334,133.682
402.826361107,-0.0928,0.2158,0.9971,12.689,4.34,133.759
402.926357289,-0.0771,0.2393,0.9966,12.623,4.351,133.621
403.026361749,-0.0659,0.188,0.9839,12.623,4.318,133.489
403.126355857,-0.0742,0.252,1.1289,12.59,4.301,133.286
403.226374428,-0.106,0.1934,0.9102,12.651,4.422,133.077
403.326367147,-0.0752,0.2549,1.1616,12.502,4.521,133.0
403.426378978,-0.0923,0.1748,1.1064,12.415,4.653,132.77
403.52637266,-0.0889,0.1299,1.0503,12.343,4.763,132.589
403.626378953,-0.1245,0.2759,0.9604,12.338,4.993,132.402
403.72637945,-0.1816,0.2583,0.9219,12.316,5.202,132.248
403.826377261,-0.1177,0.1963,0.9468,12.156,5.284,132.133
403.926379888,-0.1187,0.1953,0.9204,12.123,5.312,132.012
404.026399977,-0.1313,0.1816,0.9956,12.052,5.383,131.814
404.126408511,-0.1011,0.127,1.0044,12.041,5.378,131.666
404.226403841,-0.0986,0.2485,0.9282,12.118,5.279,131.534
404.326405634,-0.1211,0.1724,1.0176,12.14,5.158,131.336
404.426413427,-0.0645,0.3311,1.0029,12.277,5.059,131.232
404.526450646,-0.1074,0.2612,1.0479,12.074,5.164,130.836
404.626453642,-0.0952,0.0947,0.9893,11.865,5.367,130.573
404.726521158,-0.0718,0.1694,1.0054,11.772,5.383,130.682
404.826499747,-0.085,0.2007,1.0034,11.739,5.367,130.666
404.92650954,-0.1235,0.2783,0.9844,11.794,5.262,130.402
405.026516684,-0.1323,0.1855,0.9746,11.75,5.235,130.073
405.126517477,-0.127,0.207,0.9663,11.81,5.257,130.144
405.226515215,-0.1382,0.2524,1.0142,11.706,5.301,130.199
405.326531044,-0.1812,0.1562,0.9727,11.794,5.565,130.259
405.426528393,-0.1582,0.2144,1.0103,11.832,5.916,130.759
405.526529574,-0.1504,0.2788,0.9336,11.992,6.147,131.149
405.626526922,-0.1528,0.2241,1.1045,11.832,6.251,131.27
405.726534622,-0.1279,0.2212,1.0356,11.832,6.312,131.375
405.826545248,-0.1797,0.1689,1.0,11.777,6.422,131.583
405.926558485,-0.1362,0.2134,0.981,11.827,6.443,131.962
406.026589574,-0.0903,0.2275,1.0161,11.871,6.301,132.089
406.126590108,-0.1206,0.2329,0.9917,11.876,6.213,131.885
406.226587234,-0.1606,0.1992,1.0361,11.706,6.224,131.797
406.326592674,-0.1689,0.2026,1.0054,11.508,6.295,131.99
406.426590133,-0.1646,0.1934,0.9907,11.332,6.432,132.22
406.526604907,-0.1592,0.1709,0.9961,11.206,6.559,132.484
406.626599033,-0.1416,0.1987,1.0229,11.107,6.647,132.77
406.72660227,-0.0928,0.2104,1.0044,11.074,6.713,132.968
406.826598859,0.0464,0.1895,1.0,11.091,6.509,132.665
406.926616799,0.0591,0.2026,1.0317,11.041,5.982,132.001
407.026652425,0.0205,0.1904,1.0229,11.003,5.471,131.204
407.126660884,0.0039,0.1841,0.9922,10.992,5.103,130.496
407.226648065,0.0107,0.2007,1.0049,10.97,4.763,129.902
407.326645913,0.0293,0.1924,1.002,10.942,4.422,129.326
407.426652965,0.0059,0.1919,1.0044,10.926,4.103,128.705
407.526663331,0.0156,0.1997,0.9971,10.92,3.812,128.161
407.626662567,0.0127,0.1934,1.0088,10.909,3.538,127.678
407.726671878,0.0215,0.1992,0.9966,10.904,3.279,127.178
407.826662855,0.0132,0.1914,1.0078,10.898,3.038,126.711
407.926688759,0.0225,0.1968,1.0049,10.882,2.812,126.271
408.026676754,0.0171,0.1948,1.0103,10.882,2.593,125.881
408.126680547,0.0146,0.189,0.9976,10.876,2.39,125.486
408.22669295,0.0161,0.1958,1.0063,10.865,2.214,125.156
408.326673816,0.0151,0.1934,1.001,10.876,2.027,124.865
408.426693923,0.0156,0.1953,1.002,10.887,1.851,124.612
408.526739641,0.0107,0.1919,0.9937,10.887,1.697,124.316
408.626729025,0.0215,0.1958,1.0107,10.882,1.549,124.041
408.726751836,0.0088,0.1982,0.9976,10.887,1.406,123.816
408.826740924,0.0098,0.1948,1.001,10.887,1.274,123.574
408.926736642,0.0215,0.1924,1.0039,10.904,1.148,123.365
409.026759989,0.0088,0.1899,0.9966,10.904,1.033,123.19
409.126747281,0.021,0.1948,1.0034,10.909,0.923,122.992
409.226751091,0.0083,0.1958,1.001,10.915,0.813,122.811
409.326767143,0.022,0.1968,0.9976,10.926,0.714,122.629
409.426765453,0.0142,0.1938,1.0117,10.92,0.621,122.481
409.526772689,0.02,0.1943,1.0005,10.931,0.533,122.333
409.626785981,0.0142,0.1919,1.0107,10.931,0.445,122.162
409.72677205,0.0181,0.1938,0.9971,10.931,0.374,122.047
409.82679412,0.0186,0.1904,1.0093,10.931,0.297,121.915
409.926787208,0.0107,0.1943,1.0015,10.931,0.231,121.833
410.026789703,0.0166,0.1909,1.002,10.942,0.154,121.74
410.126794347,0.0122,0.1938,0.9951,10.953,0.093,121.652
410.226788046,0.0249,0.2109,0.9902,10.953,0.022,121.536
410.326805856,0.0146,0.1943,0.9932,10.926,-0.06,121.426
410.426811314,0.0293,0.186,1.0142,10.909,-0.137,121.339
410.526812976,0.0171,0.1958,1.0054,10.904,-0.203,121.273
410.626811119,0.0303,0.1958,1.0068,10.909,-0.269,121.196
410.726817355,0.0137,0.1846,1.002,10.904,-0.335,121.141
410.826849739,0.0322,0.1978,1.001,10.898,-0.39,121.086
410.926824345,0.063,0.1836,0.9839,10.893,-0.478,121.009
411.026847952,0.1201,0.1782,0.9883,10.854,-0.703,120.789
411.126849521,0.1777,0.1895,1.0059,10.822,-1.126,120.465
411.226850701,0.1553,0.1846,1.0034,10.772,-1.588,120.119
411.326849585,0.1479,0.165,0.9697,10.745,-2.0,119.899
411.426876525,0.1406,0.1602,0.9575,10.684,-2.302,119.833
411.526873446,0.1738,0.2124,1.0195,10.673,-2.708,119.894
411.626873422,0.1758,0.1655,1.0112,10.563,-3.054,120.009
411.726887824,0.1948,0.1714,0.9922,10.651,-3.384,120.081
411.826877264,0.1445,0.2432,1.0215,10.833,-3.741,120.081
411.926878925,0.1758,0.2217,1.0435,10.915,-4.059,120.114
412.026897717,0.1719,0.1689,0.9995,11.08,-4.301,120.295
412.12690023,0.2026,0.1587,0.9111,11.481,-4.691,120.718
412.226903151,0.1724,0.2456,1.0532,11.508,-5.131,121.24
412.326924664,0.2612,0.23,0.8677,11.849,-5.521,121.196
412.42691953,0.0332,0.3193,0.9497,11.547,-5.652,120.773
412.526925784,0.0815,0.2915,0.9697,11.58,-5.323,120.322
412.626932889,0.0044,0.2964,1.0254,11.904,-5.07,120.185
412.726938514,0.0679,0.3081,0.9136,12.327,-4.966,120.377
412.826943749,0.041,0.4243,0.7896,12.755,-5.202,120.075
412.926949762,0.1177,0.29,0.77,12.458,-5.504,118.054
413.026945924,0.0356,0.0171,0.9702,11.673,-5.449,115.779
413.126960474,0.063,0.2217,0.9468,11.821,-5.24,114.049
413.226960024,0.0718,0.1978,1.0723,12.101,-5.054,112.143
413.326966556,0.0742,0.3394,1.0776,12.502,-4.977,110.023
413.426956717,0.1021,0.3779,0.9526,12.843,-4.938,107.622
413.526980619,0.1001,0.3896,0.9463,12.821,-5.004,105.123
413.62699178,0.0947,0.2681,0.9731,12.766,-5.334,102.64
413.726979516,0.0806,0.2881,0.9448,12.491,-5.685,100.009
413.826966788,0.0938,0.2637,1.085,12.184,-5.889,97.18
413.926981931,0.0625,0.292,0.9165,12.239,-6.07,94.098
414.026997907,0.105,0.1992,0.938,12.217,-6.476,90.934
414.126993568,0.1006,0.1943,1.208,11.964,-6.866,88.044
414.226997877,0.105,0.3687,1.0615,12.524,-7.13,85.463
414.32701802,0.1196,0.2915,0.8584,12.689,-7.361,83.232
414.427032236,0.1519,0.3213,0.9878,12.173,-7.811,81.282
414.527033175,0.1592,0.3984,1.022,11.816,-8.35,79.299
414.627037169,0.145,0.4326,0.9546,11.887,-8.773,77.239
414.727034497,0.2153,0.3936,0.9868,11.81,-9.19,75.251
414.827044028,0.1904,0.2461,0.9878,11.656,-9.635,73.383
414.927037763,0.1792,0.5166,0.9663,11.953,-9.987,71.609
415.027071239,0.1514,0.3901,0.9087,12.48,-10.261,69.62
415.127060752,0.1704,0.3193,1.0215,12.36,-10.503,67.571
415.227064913,0.1777,0.3208,1.0254,12.491,-10.618,65.539
415.327061185,0.1533,0.3389,1.0698,12.755,-10.624,63.704
415.42707429,0.1313,0.3325,1.042,13.03,-10.607,62.084
415.527070247,0.1592,0.3057,0.9189,13.244,-10.618,60.617
415.627073464,0.1504,0.3164,0.9092,13.541,-10.734,59.233
415.727089328,0.1587,0.3101,1.103,13.585,-10.942,57.909
415.827070452,0.1626,0.377,1.0229,13.722,-11.063,56.717
415.927105668,0.1523,0.3457,1.0122,13.936,-11.124,55.563
416.027092718,0.186,0.3438,0.8789,14.293,-11.113,54.404
416.127114416,0.1426,0.3916,0.9829,14.513,-11.091,53.245
416.227118354,0.1245,0.4712,0.9951,14.854,-11.173,52.02
416.327122848,0.1768,0.4121,0.9668,15.117,-11.343,50.878
416.427136101,0.1807,0.4731,0.9146,15.331,-11.563,49.741
416.527168781,0.1587,0.4004,0.9487,15.392,-11.733,48.499
416.627165663,0.2251,0.4429,1.1382,15.211,-11.926,46.978
416.727181713,0.1836,0.3193,1.0078,15.645,-11.865,44.879
416.827173095,0.1509,0.2729,0.8521,16.1,-11.662,42.572
416.927194349,0.1274,0.1943,0.8999,16.122,-11.404,40.336
417.027214139,0.1426,0.1895,0.9854,15.826,-11.151,38.392
417.127223373,0.1445,0.2271,0.9727,15.623,-10.92,36.628
417.227214978,0.1533,0.229,0.9482,15.502,-10.783,34.991
417.327218269,0.1738,0.2661,1.0742,15.315,-10.739,33.569
417.42722167,0.1616,0.2583,1.0039,15.194,-10.706,32.278
417.527255238,0.1587,0.2144,0.9536,15.051,-10.695,31.014
417.627354861,0.1465,0.2598,0.9624,14.897,-10.662,29.8
417.727361392,0.1616,0.2046,0.9507,14.738,-10.618,28.608
417.827369034,0.1353,0.2285,1.0171,14.491,-10.53,27.411
417.927361379,0.123,0.1821,1.0186,14.326,-10.448,26.23
418.027440632,0.1416,0.2446,0.9634,14.277,-10.283,25.159
418.127467181,0.1133,0.229,1.0449,14.046,-10.036,24.175
418.227489675,0.0835,0.1948,0.9995,13.98,-9.679,23.236
418.327505113,0.1025,0.2173,0.9502,13.925,-9.404,22.379
418.427560737,0.1333,0.2422,0.9966,13.799,-9.3,21.55
418.527580582,0.1138,0.2383,1.0566,13.64,-9.207,20.764
418.627576464,0.1108,0.2168,1.0308,13.502,-8.998,20.023
418.727598458,0.1201,0.1792,0.9844,13.475,-8.784,19.319
418.827609599,0.1333,0.2231,0.9897,13.354,-8.635,18.704
418.927633852,0.1128,0.1982,0.9478,13.255,-8.514,18.089
419.027615123,0.1333,0.2041,0.979,13.217,-8.503,17.496
419.127626839,0.1392,0.1934,1.0518,13.085,-8.476,16.946
419.227643944,0.1362,0.1807,1.0957,12.914,-8.328,16.469
419.327626863,0.1201,0.1797,0.9492,12.92,-8.157,16.089
419.427641875,0.1294,0.2036,0.9873,12.865,-8.141,15.71
419.52765235,0.1396,0.252,1.0518,12.777,-8.163,15.353
419.627642325,0.1118,0.2266,1.0068,12.728,-8.102,15.051
419.727649614,0.1265,0.1885,0.9741,12.755,-7.998,14.7
419.827640904,0.1338,0.2344,0.9722,12.717,-7.943,14.337
419.92765423,0.1206,0.2007,0.9561,12.706,-7.932,13.876
420.027647094,0.1245,0.1841,1.0278,12.607,-7.927,13.409
420.127658698,0.1421,0.228,1.0356,12.574,-7.877,12.947
420.227656581,0.1309,0.2305,0.9585,12.596,-7.833,12.491
420.327656296,0.1025,0.1826,0.9468,12.557,-7.723,12.145
420.427690215,0.1309,0.2109,1.0107,12.513,-7.635,11.821
420.527663023,0.1309,0.2271,0.9927,12.497,-7.652,11.563
420.627664016,0.1445,0.2202,1.0889,12.426,-7.707,11.305
420.727667287,0.1343,0.2051,1.0542,12.387,-7.657,11.091
420.82790278,0.124,0.2021,1.0566,12.332,-7.592,10.876
420.92790394,0.1289,0.2681,1.0146,12.404,-7.531,10.679
421.027913267,0.1265,0.1924,1.0186,12.277,-7.553,10.492
421.12791926,0.1533,0.2349,1.02,12.299,-7.504,10.305
421.227925457,0.1074,0.1816,1.0059,12.195,-7.355,10.173
421.327930709,0.106,0.1792,0.9409,12.239,-7.245,9.981
421.427925572,0.1074,0.1982,1.0161,12.156,-7.229,9.844
421.527933269,0.1455,0.1836,0.9282,12.129,-7.218,9.712
421.627949688,0.1016,0.2114,0.98,12.008,-7.196,9.641
421.727937847,0.1167,0.2437,0.9277,11.986,-7.141,9.509
421.827945322,0.146,0.1797,1.084,11.827,-7.163,9.41
421.927939389,0.1172,0.1919,1.1079,11.772,-7.114,9.305
422.027952715,0.1226,0.1763,1.0527,11.7,-7.031,9.212
422.127965393,0.1113,0.1738,1.0034,11.761,-6.954,9.113
422.22795509,0.1289,0.2119,0.9429,11.766,-6.921,9.069
422.327953564,0.1289,0.1577,1.0527,11.667,-6.894,9.02
422.427970668,0.1172,0.2207,1.0371,11.629,-6.806,9.036
422.527962253,0.1099,0.1714,1.0078,11.574,-6.735,9.025
422.627957857,0.1108,0.125,0.9541,11.591,-6.718,8.987
422.727967239,0.1001,0.1919,0.9702,11.525,-6.625,8.921
422.827986879,0.0864,0.2012,0.9258,11.624,-6.581,8.822
422.927983983,0.0791,0.2534,0.8579,11.591,-6.636,8.723
423.027983976,0.1226,0.1953,1.1201,11.448,-6.669,8.646
423.128005228,0.5122,0.8594,5.6401,11.255,-6.641,8.514
423.227988591,0.1079,0.1104,1.1685,11.393,-6.608,8.322
423.32798601,0.084,0.2622,1.1367,11.426,-6.405,8.146
423.428029465,0.0679,0.2168,1.0195,11.47,-6.207,7.987
423.528004939,0.0874,0.1724,1.0337,11.464,-6.108,7.861
423.62799995,0.0688,0.2295,1.0225,11.453,-5.999,7.74
423.728009147,0.0752,0.2017,0.9946,11.393,-5.823,7.635
423.828018824,0.0479,0.1641,0.9209,11.393,-5.636,7.476
423.92801652,0.0537,0.1963,0.937,11.354,-5.548,7.311
424.028009235,0.0835,0.1787,1.043,11.25,-5.515,7.147
424.128054691,0.061,0.2046,0.9443,11.272,-5.405,6.993
424.228032498,0.0884,0.2188,1.0166,11.245,-5.356,6.844
424.32802762,0.105,0.2515,1.0293,11.206,-5.339,6.691
424.428035576,0.0962,0.1992,1.1172,11.124,-5.323,6.575
424.528035753,0.0459,0.2788,1.0293,11.14,-5.235,6.487
424.62804482,0.0928,0.2192,0.9805,11.102,-5.18,6.449
424.728045256,0.0986,0.1846,1.0913,11.129,-5.12,6.389
424.828038508,0.0439,0.1729,0.9243,11.228,-5.021,6.317
424.928055352,0.1128,0.2378,1.019,11.239,-4.944,6.235
425.028064141,0.0684,0.1602,1.0195,11.223,-4.812,6.185
425.128041504,0.0547,0.1997,0.9434,11.354,-4.691,6.125
425.228065385,0.0557,0.188,1.0137,11.299,-4.609,6.081
425.328051062,0.0488,0.189,0.9834,11.305,-4.587,6.026
425.428058851,0.1055,0.1509,0.9854,11.261,-4.653,5.955
425.528064973,0.0796,0.1533,1.0293,11.239,-4.686,5.905
425.62807978,0.0557,0.2153,0.9673,11.294,-4.642,5.834
425.728096846,0.0908,0.168,1.0259,11.195,-4.625,5.779
425.828113079,0.0908,0.1548,0.9824,11.124,-4.537,5.74
425.928122645,0.0664,0.188,0.998,10.975,-4.301,5.735
426.028115378,0.0229,0.1416,0.8911,10.909,-4.131,5.724
426.128152352,0.0571,0.1943,1.0327,10.942,-4.318,5.614
426.228146066,0.0952,0.2271,1.1548,10.849,-4.675,5.543
426.328149021,0.1318,0.1616,1.0947,10.942,-4.708,5.493
426.428155365,0.0342,0.2192,0.9199,11.206,-4.307,5.477
426.528150505,-0.0107,0.1885,0.897,11.31,-3.829,5.455
426.628160886,-0.0405,0.2188,0.9312,11.365,-3.532,5.4
426.728156934,0.0068,0.1968,1.0449,11.277,-3.499,5.339
426.828162222,0.043,0.2358,1.1133,11.228,-3.45,5.29
426.928169603,0.0107,0.1948,0.9985,11.272,-3.192,5.262
427.028172873,0.0044,0.1831,0.9551,11.305,-2.84,5.246
427.128184328,-0.0059,0.2144,0.9351,11.415,-2.582,5.191
427.228199394,-0.0117,0.1865,1.0181,11.36,-2.406,5.158
427.328207608,0.0127,0.251,0.937,11.42,-2.28,5.07
427.428227544,0.0088,0.2334,1.1289,11.31,-2.159,5.01
427.528228703,-0.0474,0.1685,0.9419,11.338,-1.84,4.982
427.628229954,-0.0083,0.1689,0.9224,11.409,-1.5,4.966
427.728247946,-0.0049,0.1499,1.0322,11.376,-1.285,4.916
427.828244752,-0.0249,0.1895,1.0439,11.36,-1.203,4.856
427.928255707,-0.0073,0.2168,1.0376,11.354,-1.11,4.845
428.028258718,-0.0317,0.1489,1.0088,11.36,-0.939,4.856
428.128274154,-0.0195,0.1758,0.9746,11.393,-0.786,4.878
428.228257016,0.0054,0.188,0.9736,11.453,-0.698,4.883
428.32825936,0.0054,0.2095,1.0796,11.398,-0.571,4.911
428.428251888,0.0029,0.2168,1.0103,11.497,-0.478,4.938
428.528274084,-0.0464,0.186,0.9307,11.525,-0.401,4.938
428.628270761,0.0034,0.186,1.0005,11.541,-0.297,4.977
428.728282938,-0.022,0.2075,0.937,11.585,-0.165,4.993
428.828283022,-0.019,0.2158,0.9111,11.613,-0.049,4.999
428.928279273,0.0083,0.2349,0.9443,11.563,0.049,5.021
429.028289431,-0.0278,0.2573,1.041,11.508,0.192,5.065
429.128286849,-0.0215,0.1782,0.9629,11.47,0.286,5.098
429.228269544,-0.0181,0.187,0.939,11.492,0.341,5.125
429.328292573,-0.0127,0.1909,0.9966,11.415,0.428,5.213
429.428297046,-0.0093,0.2612,0.8477,11.503,0.522,5.246
429.528306463,-0.0483,0.1553,1.0142,11.448,0.538,5.323
429.628332788,-0.021,0.2002,0.7778,11.497,0.505,5.367
429.72835102,0.0103,0.124,0.8965,11.409,0.604,5.482
429.828354845,-0.0469,0.3696,0.8833,11.503,0.753,5.581
429.928351911,-0.0352,0.2231,1.0352,11.431,0.917,5.669
430.028342087,-0.0361,0.1187,0.9121,11.453,0.983,5.74
430.128368579,-0.0132,0.2407,1.0498,11.426,0.983,5.812
430.228365793,-0.0439,0.3452,0.9888,11.42,1.011,5.905
430.328374321,0.0137,0.2827,1.2227,11.431,1.066,5.971
430.428373498,-0.062,0.1602,0.9678,11.497,1.044,6.059
430.528362119,0.0029,0.2139,0.915,11.651,1.055,6.114
430.628362851,-0.0938,0.2104,0.687,11.794,1.099,6.207
430.728399083,-0.0503,0.1343,0.73,11.761,1.115,6.29
430.828390315,-0.0142,0.2124,0.6401,11.893,1.159,6.35
430.928393547,-0.0073,0.167,0.6958,11.904,1.198,6.383
431.028403223,-0.0527,0.0854,0.7441,11.481,1.324,6.498
431.128385011,-0.0645,0.1323,0.814,11.332,1.351,6.575
431.228393095,-0.0273,0.144,1.1113,10.953,1.307,6.647
431.328400605,0.04,0.2046,1.1387,10.876,1.241,6.724
431.428413263,-0.0171,0.1392,1.0098,10.931,1.307,6.79
431.52848055,0.0186,0.231,0.9404,10.959,1.318,6.866
431.628495264,0.0273,0.2051,1.1152,10.849,1.285,6.905
431.728507107,-0.0234,0.1172,1.041,10.783,1.313,7.031
431.828506783,-0.0337,0.2246,1.0942,10.833,1.362,7.119
431.928529589,0.0088,0.1953,1.1509,10.822,1.373,7.207
432.028500839,-0.0713,0.0908,1.0566,10.865,1.346,7.289
432.128507997,0.0039,0.2358,0.9438,10.986,1.357,7.333
432.228554859,-0.0811,0.146,0.9141,11.003,1.428,7.405
432.32853898,-0.0083,0.1533,0.9346,10.942,1.461,7.454
432.428525804,-0.0117,0.2363,1.1147,10.92,1.511,7.515
432.528527277,-0.0283,0.1763,0.8994,10.997,1.494,7.515
432.628545471,-0.0215,0.1685,0.9536,10.942,1.423,7.564
432.728535092,-0.0181,0.1235,0.9888,10.893,1.406,7.614
432.828553083,-0.0078,0.1641,0.978,10.871,1.516,7.69
432.928522018,-0.0117,0.1709,0.9297,10.871,1.708,7.762
433.028565824,-0.0347,0.1655,0.9209,10.865,1.978,7.855
433.128569482,-0.0605,0.1504,0.832,10.909,2.082,7.921
433.228575195,-0.0259,0.1987,1.0244,10.849,1.972,7.982
433.328586094,-0.0161,0.2056,1.0737,10.794,1.912,8.097
433.428585121,-0.0264,0.1606,0.9209,10.931,1.923,8.179
433.528594983,-0.0205,0.2207,1.0474,10.92,1.868,8.289
433.628590807,-0.0264,0.1597,1.0229,10.931,1.796,8.355
433.728606168,-0.0459,0.2144,0.9346,10.931,1.758,8.448
433.828601937,-0.0293,0.1479,0.9023,10.964,1.741,8.454
433.928610261,0.0044,0.1841,1.0439,10.887,1.67,8.481
434.0288934,-0.04,0.1636,0.9243,10.871,1.637,8.481
434.12865852,-0.0073,0.1846,0.9907,10.8,1.626,8.487
434.228653789,0.0068,0.2012,0.9995,10.75,1.637,8.503
434.328647021,-0.021,0.1973,1.0088,10.668,1.659,8.514
434.428661604,-0.0244,0.2026,0.9624,10.624,1.664,8.547
434.528643021,-0.0112,0.1206,0.9917,10.541,1.642,8.575
434.628659585,-0.0161,0.1606,1.0513,10.481,1.593,8.646
434.728661002,0.0005,0.187,1.0503,10.41,1.56,8.674
434.828667678,-0.0122,0.1484,1.105,10.327,1.555,8.74
434.928663928,-0.0215,0.23,0.9912,10.377,1.582,8.784
435.028689956,0.0054,0.1602,1.063,10.311,1.522,8.833
435.128688039,-0.0088,0.1665,1.0483,10.316,1.5,8.904
435.228700548,-0.0352,0.1792,0.9995,10.382,1.593,8.97
435.328694076,-0.0293,0.1748,0.9863,10.399,1.686,9.091
435.428717474,-0.0327,0.1499,0.8936,10.492,1.741,9.185
435.528737853,-0.0327,0.2046,0.9404,10.453,1.741,9.338
435.628713603,-0.002,0.1992,0.9312,10.563,1.697,9.432
435.728720094,-0.0029,0.1968,1.0288,10.47,1.648,9.553
435.828714566,-0.0356,0.1562,0.9688,10.552,1.714,9.679
435.92870976,-0.0273,0.1616,0.895,10.662,1.73,9.756
436.028730084,-0.0078,0.1978,0.9482,10.734,1.681,9.855
436.128728352,0.0049,0.1958,1.022,10.701,1.73,9.954
436.22873462,0.0039,0.1553,0.9893,10.679,1.917,10.074
436.328733074,-0.0498,0.1963,0.7598,10.997,1.769,10.102
436.428752676,0.0156,0.2246,1.3149,10.432,1.34,10.223
436.528742296,0.0215,0.1235,1.1577,10.525,1.247,10.333
436.628737212,-0.022,0.1997,1.0059,10.745,1.401,10.443
436.728770591,-0.0366,0.2256,0.9399,10.86,1.445,10.536
436.828752989,0.001,0.1685,1.0586,10.783,1.291,10.525
436.928763498,0.0054,0.1436,1.0337,10.745,1.252,10.552
437.028774711,-0.0117,0.1431,0.9624,10.75,1.263,10.607
437.128775275,-0.0103,0.2109,1.0049,10.734,1.263,10.651
437.228779562,-0.0317,0.1997,1.0312,10.69,1.247,10.728
437.328818089,-0.0088,0.2173,1.0039,10.717,1.165,10.75
437.428805283,-0.0166,0.146,0.9634,10.646,1.121,10.8
437.528824107,-0.022,0.1577,0.9297,10.662,1.121,10.833
437.628814782,-0.0044,0.1924,1.0239,10.602,1.126,10.893
437.728815717,-0.0063,0.1616,0.9805,10.602,1.187,10.997
437.828791374,-0.062,0.1504,0.9307,10.635,1.307,11.063
437.928840938,-0.0659,0.2139,1.0791,10.596,1.379,11.102
438.028944706,-0.0508,0.1704,1.0649,10.569,1.461,11.074
438.128954585,-0.0576,0.1831,1.0474,10.585,1.577,11.019
438.228934668,-0.0601,0.1885,1.02,10.585,1.681,10.992
438.328942121,-0.062,0.1533,0.979,10.646,1.818,11.008
438.428969797,-0.0454,0.1777,0.939,10.712,1.868,11.091
438.528951787,-0.0068,0.1787,0.9912,10.679,1.873,11.201
438.628960425,-0.0303,0.1294,0.9595,10.695,1.879,11.31
438.728962637,-0.0259,0.2432,0.9746,10.767,1.78,11.393
438.828979868,-0.0161,0.186,0.939,10.8,1.703,11.437
438.928974729,-0.0093,0.1709,1.0103,10.772,1.67,11.508
439.028955645,-0.02,0.2002,1.0278,10.739,1.642,11.536
439.128991376,-0.0317,0.2026,0.9731,10.723,1.664,11.541
439.229018181,-0.0361,0.1387,0.8872,10.668,1.692,11.536
439.329028763,-0.0059,0.2104,1.0791,10.574,1.714,11.514
439.429023772,-0.0151,0.0908,0.4775,10.629,1.752,11.541
439.529037762,-0.0059,0.1465,1.0337,10.629,1.785,11.574
439.62904553,-0.019,0.228,1.0127,10.64,1.807,11.613
439.729037112,-0.0229,0.1597,1.0503,10.624,1.807,11.662
439.829077547,-0.0049,0.2051,1.0156,10.607,1.802,11.662
439.92909,-0.0537,0.1216,0.875,10.717,1.835,11.678
440.02911149,-0.0181,0.1929,0.9961,10.646,1.835,11.689
440.129114794,-0.0063,0.2065,0.9302,10.717,1.774,11.689
440.229119618,-0.0039,0.1689,0.9863,10.684,1.769,11.75
440.329115922,-0.0259,0.1992,0.9517,10.712,1.895,11.816
440.429146672,-0.0283,0.123,0.8794,10.794,1.978,11.871
440.529147865,-0.0146,0.1777,0.9521,10.712,2.049,11.959
440.629177892,-0.0537,0.1978,0.8579,10.717,2.164,11.964
440.72917953,-0.0381,0.2241,0.9609,10.602,2.197,11.97
440.829192168,-0.0249,0.1299,1.0029,10.448,2.236,11.992
440.929232806,-0.0308,0.2124,0.9189,10.475,2.236,12.019
441.029185518,-0.0464,0.1709,0.936,10.41,2.225,12.101
441.129196786,-0.0205,0.2212,0.9614,10.437,2.263,12.211
441.229191923,-0.0034,0.2256,1.0283,10.41,2.39,12.382
441.329206654,-0.0044,0.167,1.0195,10.448,2.494,12.557
441.429231533,-0.0259,0.1646,1.0078,10.519,2.554,12.678
441.529218448,-0.0449,0.1997,0.9883,10.574,2.56,12.788
441.629237568,-0.0278,0.1738,0.9868,10.64,2.549,12.881
441.729246428,-0.0557,0.1724,0.9146,10.712,2.554,12.969
441.829252047,-0.0767,0.1958,0.939,10.75,2.521,13.079
441.929258444,0.0063,0.1865,1.0059,10.684,2.477,13.145
442.029261026,-0.0498,0.209,0.9878,10.69,2.395,13.206
442.129274312,-0.0586,0.1353,0.9688,10.635,2.285,13.255
442.229310358,-0.041,0.2085,1.0156,10.607,2.197,13.222
442.32929881,-0.0098,0.1328,0.9399,10.607,2.126,13.206
442.429305837,-0.0664,0.2676,1.0142,10.58,2.071,13.195
442.529301419,-0.0371,0.145,0.9658,10.585,2.038,13.123
442.62932002,0.0156,0.1665,1.103,10.552,2.027,13.024
442.729317769,-0.0957,0.1626,0.9043,10.635,2.005,12.865
442.829324703,-0.001,0.2158,1.1562,10.541,1.901,12.656
442.929335285,-0.0195,0.2153,1.0088,10.519,1.818,12.513
443.0293707,-0.0327,0.2139,0.9634,10.596,1.747,12.491
443.129362023,-0.0527,0.2163,0.9756,10.618,1.774,12.557
443.229366827,-0.0249,0.1152,1.0107,10.646,1.89,12.689
443.329373706,-0.1118,0.187,0.8496,10.811,1.884,12.81
443.429368492,-0.0454,0.2036,0.9858,10.783,1.648,12.914
443.529379555,0.0068,0.2036,1.1216,10.585,1.28,13.057
443.629385045,0.0186,0.2041,1.0205,10.596,1.143,13.255
443.729402182,-0.0835,0.2144,0.9458,10.585,1.368,13.497
443.829386505,-0.0542,0.1704,0.9751,10.481,1.626,13.601
443.929414846,0.0,0.1646,0.9761,10.47,1.725,13.546
444.029400724,-0.0571,0.1675,1.0332,10.486,1.807,13.601
444.129414695,-0.0601,0.1714,1.0957,10.486,1.873,13.777
444.22943724,-0.0063,0.1899,1.1519,10.602,1.813,13.958
444.329432859,-0.0371,0.1826,1.0688,10.876,1.873,13.975
444.429437663,-0.0923,0.2046,1.0088,11.223,2.071,13.694
444.529466227,-0.0537,0.0737,0.9741,11.602,1.989,13.184
444.629426309,-0.1006,0.3413,1.043,11.75,1.511,12.662
444.729399002,-0.0117,0.2969,1.2012,11.206,0.604,12.228
444.829412861,0.1367,0.1616,1.2583,10.256,-0.159,11.904
444.929412239,0.0254,0.1484,1.0225,9.866,0.385,11.651
445.029425007,-0.1377,0.0757,0.5664,10.371,1.527,11.492
445.129443848,-0.1177,0.0386,0.6489,10.53,2.082,11.173
445.229456059,-0.1069,0.1938,0.9429,10.239,1.89,11.069
445.329425937,0.0132,0.2148,1.3154,9.58,1.165,10.942
445.429441797,0.0483,0.168,1.1968,9.448,0.846,10.772
445.529440712,-0.0479,0.1416,0.9194,9.586,1.071,10.563
445.62943846,-0.0771,0.167,0.835,9.739,1.39,10.344
445.729438801,-0.0581,0.1523,0.8687,9.778,1.406,10.091
445.829443254,-0.0249,0.1733,1.0366,9.586,1.203,9.882
445.929447465,-0.0171,0.3472,0.8911,9.822,1.187,9.772
446.029459547,-0.0879,0.019,0.812,9.739,1.357,9.75
446.129485703,-0.0078,0.2173,1.1479,9.47,1.274,9.701
446.229471118,-0.0093,0.0801,1.0859,9.426,1.198,9.69
446.329478588,-0.0215,0.1938,1.0635,9.542,1.137,9.635
446.429474818,-0.0483,0.1636,0.9204,9.602,1.06,9.547
446.529492381,-0.0439,0.1875,1.0815,9.476,0.978,9.481
446.629487278,0.0059,0.1802,1.1011,9.443,0.884,9.366
446.729504433,-0.0215,0.1309,1.0825,9.388,0.818,9.267
446.82950257,-0.0435,0.186,1.0923,9.399,0.829,9.207
446.929506096,-0.0298,0.1338,0.9707,9.371,0.758,9.108
447.029515548,-0.0234,0.1372,0.9937,9.366,0.736,9.009
447.129534538,-0.0532,0.1606,0.979,9.415,0.797,8.91
447.229505823,0.0107,0.1504,1.0234,9.404,0.824,8.745
447.329517793,-0.061,0.165,0.9512,9.437,0.807,8.569
447.429526227,-0.0322,0.1187,0.9814,9.426,0.747,8.427
447.529523067,-0.0254,0.1401,1.001,9.404,0.742,8.306
447.629568705,-0.0229,0.1284,0.9858,9.399,0.797,8.24
447.72953536,-0.0928,0.2231,0.9365,9.437,0.857,8.201
447.829545905,-0.0435,0.0859,0.9551,9.349,0.884,8.108
447.929556727,-0.0225,0.1499,1.0684,9.245,0.906,7.987
448.029561253,-0.02,0.2036,1.0488,9.212,0.983,7.811
448.129568631,-0.0991,0.1621,0.9219,9.157,1.17,7.597
448.229564786,-0.1089,0.168,1.0186,9.014,1.401,7.416
448.329560775,-0.0654,0.0679,0.9604,8.987,1.631,7.185
448.429581505,-0.103,0.1826,0.9556,9.031,1.769,6.976
448.529587141,-0.1279,0.1528,1.0376,8.915,1.802,6.844
448.629609241,-0.0562,0.1099,1.0571,8.954,1.934,6.718
448.729597712,-0.0972,0.1733,1.0713,8.959,2.17,6.625
448.82959046,-0.1045,0.1582,0.9697,9.053,2.433,6.509
448.929612023,-0.1309,0.2212,0.9771,9.047,2.725,6.356
449.029629141,-0.144,0.1826,1.0142,9.02,3.06,6.202
449.129638741,-0.1108,0.1499,1.063,9.042,3.367,5.971
449.229643285,-0.1689,0.165,1.0649,9.08,3.587,5.757
449.329626589,-0.1221,0.1387,1.0151,9.102,3.807,5.587
449.429642226,-0.0801,0.1787,0.9365,9.141,3.972,5.433
449.529646288,-0.1069,0.1655,0.9292,9.13,3.955,5.394
449.629649036,-0.0308,0.1519,1.0747,8.976,3.988,5.361
449.729678155,-0.1025,0.1821,1.0093,8.943,4.158,5.306
449.829662162,-0.1201,0.123,0.9419,8.86,4.257,5.131
449.929661521,-0.1172,0.0752,1.04,8.712,4.274,4.9
450.029677787,-0.0415,0.1318,0.9707,8.729,4.34,4.68
450.129683387,-0.0581,0.167,1.0249,8.701,4.23,4.482
450.229694376,-0.0664,0.1328,1.0366,8.663,3.955,4.384
450.329704512,0.0024,0.1846,1.0718,8.613,3.867,4.323
450.429745316,-0.0415,0.1538,1.0015,8.652,3.983,4.362
450.529735508,-0.1011,0.1226,0.9443,8.723,4.092,4.351
450.629740608,-0.124,0.1255,0.9976,8.718,4.081,4.329
450.729741763,-0.0967,0.208,1.0742,8.674,3.999,4.246
450.829748955,-0.0981,0.125,1.0273,8.58,4.005,4.169
450.929763073,-0.0747,0.1636,0.9937,8.52,4.125,4.043
451.029771506,-0.1411,0.1416,0.8984,8.448,4.34,3.867
451.129787328,-0.0815,0.0337,0.9868,8.174,4.537,3.653
451.22979102,-0.1108,0.1553,0.9766,8.119,4.664,3.384
451.329880028,-0.1045,0.1069,0.9644,7.949,4.609,3.137
451.42982059,-0.0879,0.147,0.9526,7.756,4.323,2.889
451.529806541,-0.0557,0.1577,1.0068,7.377,3.988,2.697
451.629835993,-0.0444,0.1475,1.0723,6.982,4.01,2.45
451.729836389,-0.0449,-0.0161,0.9834,6.718,4.521,2.203
451.829843247,-0.1099,0.0938,0.8237,6.713,5.273,1.939
451.929855903,-0.1187,0.0718,0.8506,6.597,5.916,1.736
452.029860076,-0.1655,0.0552,0.9458,6.476,6.24,1.588
452.129857935,-0.1177,0.1206,1.0146,6.454,6.29,1.505
452.229856257,-0.1069,0.1104,0.9941,6.46,6.29,1.395
452.329873782,-0.1753,0.1924,1.0044,6.542,6.35,1.296
452.429882696,-0.104,0.0947,0.8809,6.696,6.13,1.258
452.529883796,-0.1675,0.1475,0.9238,6.63,5.757,1.351
452.629870543,0.0059,0.1006,1.127,6.367,5.488,1.642
452.729873124,-0.0259,-0.0742,0.9048,6.372,5.652,2.0
452.82988452,-0.2354,0.1743,0.5859,7.163,5.922,2.082
452.929881397,-0.0879,0.1729,1.0845,6.603,5.889,2.241
453.029890293,-0.1333,-0.1416,0.7749,6.185,5.46,2.109
453.129886818,0.0225,0.2954,1.1611,5.724,4.57,1.829
453.22989514,-0.0527,0.0801,0.9409,5.707,4.268,1.593
453.329901517,-0.1396,0.1914,0.9443,5.438,4.565,1.318
453.429912913,-0.1304,0.1045,0.9648,5.85,4.944,0.967
453.529902086,-0.1348,0.126,0.9785,6.103,5.081,0.588
453.629897778,-0.0977,0.2051,0.9282,6.465,4.867,0.214
453.729913896,-0.0947,0.1416,1.1025,6.553,4.587,0.005
453.829912847,-0.0923,0.0811,1.0732,6.779,4.438,-0.159
453.929908372,-0.1294,0.1929,0.9619,7.064,4.46,-0.236
454.029915083,-0.1416,0.0786,0.9458,7.163,4.603,-0.363
454.129922978,-0.1587,0.1304,0.9028,7.306,4.768,-0.478
454.229944911,-0.1074,0.0986,0.9829,7.328,4.894,-0.527
454.329953214,-0.0776,0.2007,1.0112,7.438,4.988,-0.604
454.429972072,-0.0947,0.1553,1.0059,7.493,5.01,-0.599
454.529968357,-0.0918,0.1401,1.0234,7.509,4.982,-0.566
454.629989289,-0.0576,0.1768,1.0054,7.646,4.916,-0.483
454.729995222,-0.0786,0.1758,1.0527,7.635,4.861,-0.346
454.830013339,-0.104,0.123,1.022,7.729,4.883,-0.302
454.930008957,-0.1128,0.1782,1.0049,7.883,4.774,-0.341
455.030020038,-0.126,0.1196,0.9951,7.905,4.647,-0.434
455.130026693,-0.0781,0.1313,0.9512,7.998,4.554,-0.621
455.230036107,-0.0718,0.1284,1.0918,7.905,4.482,-0.714
455.330096372,-0.1055,0.2285,1.0068,7.905,4.515,-0.797
455.430068009,-0.124,0.0386,1.0127,7.762,4.548,-0.901
455.530085256,-0.0947,0.126,0.9082,7.756,4.559,-0.994
455.630080059,-0.0537,0.1157,0.9897,7.592,4.482,-1.165
455.730075121,-0.0151,0.0723,1.0059,7.416,4.395,-1.412
455.830086479,0.0,0.0732,1.1187,7.229,4.411,-1.675
455.930084911,-0.1045,0.0879,1.0205,6.998,4.433,-2.082
456.030111807,-0.0337,0.082,0.9648,6.768,4.312,-2.67
456.130167887,-0.0068,0.0708,1.001,6.509,4.098,-3.296
456.230156431,-0.0322,-0.0791,1.3345,6.07,3.719,-3.961
456.330159863,0.0054,0.0371,1.29,5.652,3.658,-4.735
456.430151851,-0.0459,-0.0352,1.1504,5.306,3.735,-5.493
456.530164561,-0.0337,-0.0317,1.0386,4.933,3.779,-6.306
456.630159549,-0.0522,-0.0327,0.9775,4.532,3.664,-7.361
456.730159704,-0.0234,-0.0991,0.8667,4.043,3.296,-8.58
456.830158895,0.0181,-0.0752,1.0156,3.472,2.763,-9.838
456.930157939,-0.0083,-0.082,1.0591,2.818,2.373,-11.113
457.030159204,0.0093,-0.042,1.0576,2.395,2.005,-12.332
457.130158859,0.0337,-0.0347,1.0229,2.01,1.697,-13.469
457.230167402,0.0337,-0.0752,0.9722,1.664,1.467,-14.683
457.330164297,0.0054,-0.0903,1.1357,1.093,1.219,-15.991
457.430166248,0.0093,-0.0498,1.0894,0.681,0.945,-17.254
457.530177365,0.0151,-0.1582,1.124,0.082,0.692,-18.468
457.630185168,0.0146,-0.1851,1.1143,0.044,0.538,-19.704
457.730215267,-0.0518,0.0161,0.9741,0.417,0.555,-20.748
457.830196458,-0.0088,0.1729,1.0918,-0.06,0.417,-21.489
457.930199854,-0.0337,0.0439,0.9214,-0.939,-0.071,-22.511
458.03021673,0.02,-0.0947,0.9365,-1.983,-0.934,-23.637
458.130218236,0.0405,-0.2168,1.3447,-3.021,-1.599,-24.587
458.230224632,-0.084,0.0054,1.1626,-2.521,-2.236,-25.724
458.330236656,0.0479,0.0459,0.9512,-1.555,-2.895,-26.862
458.430229218,0.0254,0.0039,0.5767,-1.736,-3.192,-27.515
458.530243372,0.2158,-1.2295,6.0913,-3.856,-3.153,-27.911
458.630231693,-0.0117,-0.0591,1.2847,-3.527,-2.791,-28.669
458.73025257,0.0103,0.0493,0.9077,-2.335,-2.098,-29.108
458.830289243,-0.0874,-0.0063,0.7075,-2.175,-1.208,-29.235
458.930250508,-0.0513,-0.1533,0.9795,-2.692,-0.818,-29.301
459.030275588,-0.0366,0.0635,0.8218,-2.115,-0.758,-29.465
459.130267632,-0.0322,-0.0615,1.1948,-2.527,-0.648,-29.361
459.230279416,-0.0195,-0.1494,0.9956,-2.67,-0.731,-29.218
459.330283625,0.0024,-0.021,1.1235,-2.346,-0.775,-28.971
459.430286724,0.0439,0.0244,1.0933,-2.06,-0.725,-28.685
459.530311341,0.0508,0.0381,1.1899,-2.291,-0.753,-28.163
459.630329996,-0.0308,-0.0327,1.0542,-2.302,-0.851,-27.68
459.730320353,-0.0303,0.0552,0.9902,-1.873,-0.906,-27.587
459.830325434,-0.0142,-0.0117,0.9932,-1.527,-0.967,-27.828
459.930330884,-0.0605,0.0518,1.0186,-1.324,-1.049,-28.163
460.030398612,-0.0229,0.0098,0.9907,-0.95,-1.126,-28.537
460.130423304,0.0039,-0.0664,1.1445,-0.956,-1.241,-28.987
460.230443884,-0.0059,0.0503,1.0869,-0.824,-1.263,-29.333
460.330444927,-0.0088,-0.0366,0.96,-0.67,-1.17,-29.465
460.4304326,0.0068,-0.0586,1.1162,-0.736,-1.17,-29.284
460.530459661,0.0083,-0.0381,1.1157,-0.786,-1.159,-28.905
460.630453463,-0.0122,-0.0044,0.8916,-0.467,-1.038,-28.246
460.730498136,-0.0366,0.0132,0.8359,-0.165,-0.835,-27.241
460.830489031,-0.0625,0.021,1.0317,-0.412,-0.654,-25.895
460.930485981,-0.0322,0.02,1.1538,-0.406,-0.439,-24.988
461.03050108,-0.0762,0.0854,1.0078,0.011,-0.203,-24.373
461.130487623,-0.0806,0.0664,1.0005,0.302,0.022,-23.862
461.230503999,-0.0757,0.0811,1.0332,0.582,0.17,-23.379
461.330517376,-0.085,0.0562,0.9946,0.736,0.247,-23.093
461.430527178,-0.0449,0.0225,1.0571,0.599,0.302,-22.714
461.530518406,-0.0557,0.0034,1.0308,0.505,0.385,-21.731
461.630521171,-0.0469,0.002,1.019,0.522,0.428,-19.742
461.730540306,-0.042,0.0693,1.0156,0.626,0.472,-16.727
461.830526386,-0.0186,0.0747,1.0874,0.692,0.538,-13.486
461.930539892,0.0205,0.0078,1.0449,0.654,0.654,-10.794
462.030561009,0.0049,0.0479,1.0083,0.681,0.775,-7.443
462.130558219,-0.0127,0.0547,1.0068,0.736,0.851,-3.647
462.230557484,0.0132,0.0249,1.0825,0.862,0.884,0.533
462.330573175,0.0474,0.0586,1.147,1.219,0.818,4.68
462.430575569,0.1011,0.0479,1.1382,1.56,0.621,8.267
462.530558409,0.1318,0.0884,1.1699,1.89,0.396,11.931
462.630570192,0.0889,0.0981,1.0654,2.296,0.275,15.859
462.730563383,0.1123,0.0781,1.0718,2.368,0.154,19.666
462.830585463,0.1323,0.106,0.9966,2.686,0.049,22.956
462.930570209,0.0317,0.1265,1.0195,2.983,0.06,25.95
463.030582511,0.0381,0.0332,1.1001,3.126,0.148,29.262
463.130593925,-0.0015,-0.0205,1.0605,3.279,0.225,33.08
463.230595116,0.0459,0.0176,0.9277,3.466,0.275,36.562
463.330590066,0.0298,0.2368,1.1406,3.867,0.275,39.435
463.430596294,0.0361,0.1558,1.0771,4.29,0.319,42.341
463.530602114,0.1025,0.2139,1.1445,4.719,0.291,45.082
463.630619749,0.0654,0.1299,1.0244,5.026,0.077,46.851
463.730622051,0.1284,0.1753,1.2241,5.18,-0.154,48.34
463.830629594,0.124,0.0947,1.1953,5.367,-0.401,49.955
463.930629229,0.0967,0.1274,1.1611,5.795,-0.67,51.724
464.030631031,0.1602,0.1094,1.0835,6.015,-0.994,52.96
464.130632537,0.1411,0.1025,0.9839,6.273,-1.263,54.036
464.230636302,0.1304,0.1597,1.0796,6.356,-1.478,55.497
464.330650474,0.1494,0.1099,1.1792,6.361,-1.681,56.656
464.43066272,0.1812,0.0957,1.0,6.625,-1.967,57.491
464.530664115,0.1445,0.104,0.9229,6.883,-2.296,58.651
464.630661491,0.165,0.1538,1.0073,6.932,-2.758,59.606
464.730665904,0.1992,0.1104,1.1543,6.905,-3.175,60.364
464.830653039,0.189,0.1543,1.0527,6.993,-3.505,61.188
464.930652359,0.1694,0.105,1.0654,6.949,-3.867,61.672
465.03066105,0.1724,0.1431,1.0503,7.092,-4.169,62.364
465.13067313,0.1655,0.1592,0.9707,7.18,-4.466,62.792
465.230678709,0.187,0.0825,1.167,7.053,-4.686,63.27
465.330686548,0.231,0.1191,0.9907,7.306,-4.828,63.704
465.430674072,0.1655,0.1807,1.0054,7.421,-5.004,64.265
465.53069267,0.1704,0.0601,0.9126,7.344,-5.317,64.973
465.630697454,0.2148,0.1909,1.0059,7.317,-5.768,65.682
465.730685033,0.1289,0.144,0.9995,7.454,-6.037,66.572
465.830695946,0.1382,0.2114,0.999,7.685,-6.037,67.11
465.930702692,0.1206,0.2207,0.957,7.949,-6.037,67.462
466.030710716,0.1118,0.2119,0.8848,8.102,-6.169,67.495
466.130705481,0.1372,0.144,1.082,7.954,-6.383,67.33
466.230704542,0.1069,0.0762,1.0605,7.949,-6.531,67.275
466.330749399,0.1191,0.0933,1.167,7.773,-6.57,67.319
466.430727127,0.0859,0.0708,0.9741,7.85,-6.559,67.78
466.530747021,0.1201,0.0801,0.9326,7.872,-6.57,68.148
466.63073223,0.1328,0.1362,1.0127,7.784,-6.641,68.747
466.730753439,0.1455,0.0508,0.8652,7.784,-6.702,69.126
466.8307475,0.1143,0.1138,0.9717,7.679,-6.74,69.609
466.930775969,0.1318,0.0898,0.877,7.657,-6.762,69.955
467.030765993,0.0972,0.1011,1.0015,7.548,-6.79,70.455
467.130784109,0.1406,0.0645,0.9209,7.498,-6.96,70.867
467.230780096,0.1411,0.1182,1.0513,7.361,-7.207,71.356
467.330781305,0.1606,0.1387,1.1367,7.322,-7.262,71.708
467.430789218,0.1875,0.0864,0.9316,7.476,-7.229,72.098
467.530839686,0.1333,0.1094,1.0229,7.394,-7.278,72.35
467.630835469,0.1533,0.062,1.0122,7.333,-7.416,72.658
467.730855474,0.1221,0.1138,0.8833,7.35,-7.487,72.966
467.830855202,0.0928,0.1064,0.853,7.366,-7.482,73.196
467.930863911,0.1294,0.1284,1.0034,7.262,-7.597,73.361
468.03085149,0.1367,0.1313,0.9976,7.174,-7.751,73.455
468.130847958,0.1304,0.0938,0.9482,7.136,-7.806,73.647
468.230873964,0.105,0.1162,1.0103,7.042,-7.718,73.779
468.330864876,0.1152,0.1211,1.1074,6.998,-7.751,74.07
468.430882715,0.1777,0.1313,1.0283,7.147,-7.839,74.29
468.530881572,0.1118,0.1494,0.8916,7.213,-7.844,74.449
468.630865522,0.1353,0.1631,0.9888,7.317,-7.916,74.658
468.730874082,0.1426,0.1392,1.0596,7.311,-7.971,74.663
468.830891328,0.1436,0.1147,0.9746,7.416,-7.998,74.822
468.930897945,0.1299,0.0972,1.0034,7.339,-8.009,75.004
469.030895079,0.146,0.1519,1.0249,7.366,-8.031,75.383
469.130945733,0.1523,0.1162,1.1675,7.377,-8.053,75.883
469.230957831,0.0903,0.1675,1.0396,7.575,-8.026,76.311
469.330957669,0.1206,0.187,0.8862,7.668,-7.965,76.487
469.430972341,0.0918,0.1919,0.8633,7.74,-7.943,76.503
469.530969142,0.1025,0.126,0.9482,7.641,-7.921,76.251
469.630938962,0.0718,0.1567,1.0332,7.542,-7.888,76.295
469.730991208,0.0889,0.084,0.9443,7.443,-7.822,76.652
469.830979046,0.0903,0.1069,1.1611,7.388,-7.767,77.135
469.931007478,0.0967,0.1221,0.9521,7.482,-7.795,77.778
470.030990964,0.0908,0.1406,0.8813,7.586,-7.839,78.228
470.131002117,0.1069,0.1514,1.0117,7.57,-7.943,78.294
470.23102066,0.1172,0.1494,1.0571,7.498,-8.015,78.129
470.331002813,0.1045,0.1504,0.9507,7.482,-7.998,77.86
470.431014707,0.1416,0.127,1.0337,7.317,-8.097,77.371
470.531009712,0.1406,0.1001,1.0195,7.086,-8.119,76.816
470.631032069,0.1201,0.0469,0.9844,6.938,-8.08,76.349
470.731034148,0.0981,0.1299,0.9785,6.773,-8.108,75.943
470.831058875,0.1187,0.0688,1.002,6.493,-8.234,75.311
470.931041121,0.1572,0.1006,1.127,6.224,-8.355,74.773
471.031045959,0.0889,-0.0054,1.1211,6.169,-8.427,74.394
471.131047964,0.1694,0.063,1.0376,6.454,-8.503,74.454
471.231047413,0.1211,0.1279,1.105,6.641,-8.47,74.998
471.331073381,0.1396,0.146,1.2334,6.696,-8.503,75.372
471.431053516,0.1494,0.1484,1.187,6.779,-8.597,75.163
471.531084114,0.147,0.0474,1.0234,6.844,-8.514,74.762
471.631023044,0.1177,0.1211,1.0938,6.938,-8.377,74.729
471.731081864,0.1089,0.0703,1.0508,7.059,-8.427,75.207
471.83108461,0.1343,0.0977,1.1348,7.097,-8.454,75.515
471.931086281,0.1382,0.1025,1.0293,7.224,-8.405,75.8
472.031090749,0.1099,0.1797,0.8848,7.361,-8.35,76.218
472.131082643,0.0923,0.0693,0.9873,7.322,-8.19,76.822
472.231083148,0.1211,0.105,0.7539,7.487,-8.245,77.723
472.331081634,0.084,0.1836,1.2031,7.251,-8.366,78.75
472.431102325,0.1455,0.1064,1.103,7.092,-8.569,79.64
472.531107663,0.1348,0.0474,1.1172,6.976,-8.476,80.447
472.631108612,0.1323,0.0664,0.9741,6.993,-8.124,81.145
472.731125672,0.1147,0.0801,0.8623,7.081,-7.795,82.079
472.831121585,0.1157,0.1128,0.8237,7.141,-7.646,83.194
472.931125812,0.1216,0.123,0.9292,7.174,-7.592,84.441
473.031118131,0.1494,0.0767,1.0225,7.218,-7.586,85.545
473.131130488,0.1499,0.1323,1.2275,7.207,-7.646,86.633
473.231146197,0.1685,0.1484,1.2573,7.256,-7.635,87.66
473.331145553,0.1357,0.0874,1.1406,7.213,-7.603,89.099
473.431153095,0.1113,0.0566,1.0015,7.207,-7.471,90.505
473.531153526,0.123,0.103,1.02,7.141,-7.564,92.06
473.631160623,0.1631,0.1914,1.0776,6.762,-7.707,93.137
473.731167646,0.1738,0.1611,1.2368,6.257,-7.707,93.4
473.831186114,0.1138,-0.0039,0.8945,6.169,-7.284,93.752
473.931154786,0.0518,0.0205,0.7065,6.416,-6.872,94.57
474.031164457,0.167,0.1729,1.0796,6.257,-6.938,95.663
474.131171758,0.0859,0.0688,0.9409,6.152,-6.91,96.4
474.231156411,0.0879,0.1147,1.042,6.13,-6.773,96.85
474.331162323,0.1216,0.1001,1.0205,6.037,-6.713,97.24
474.431162754,0.1787,0.0684,0.9971,5.916,-6.746,97.8
474.531193388,0.0947,0.0903,1.0615,5.856,-6.828,98.383
474.631177078,0.1147,0.0615,0.9629,5.779,-6.768,99.058
474.73120149,0.1318,0.0347,0.9814,5.641,-6.707,99.794
474.831214643,0.1138,0.0732,0.9951,5.57,-6.63,100.536
474.931208666,0.0986,0.0381,0.9702,5.548,-6.603,101.228
475.031230356,0.1611,0.1318,1.1382,5.471,-6.652,101.865
475.131208416,0.0972,0.0771,1.0708,5.378,-6.685,102.42
475.23121868,0.1206,0.0918,1.0093,5.262,-6.74,102.898
475.331234796,0.145,0.0625,1.0498,5.164,-6.685,103.271
475.431231245,0.103,0.04,0.9365,5.235,-6.542,103.733
475.531234101,0.0996,0.1123,0.9521,5.328,-6.454,104.277
475.631233569,0.1357,0.1245,1.019,5.449,-6.471,104.639
475.731235129,0.1055,0.1035,0.9443,5.559,-6.487,104.766
475.831257115,0.1401,0.123,1.0449,5.625,-6.509,104.969
475.931247916,0.1152,0.1133,1.0537,5.652,-6.509,105.172
476.03128805,0.105,0.1001,1.0732,5.663,-6.553,105.474
476.131254703,0.1113,0.1069,0.9844,5.724,-6.619,105.76
476.231277448,0.125,0.1509,1.0649,5.718,-6.625,106.062
476.331254231,0.1323,0.1343,0.9941,5.718,-6.597,106.144
476.431272069,0.0977,0.0493,0.9087,5.696,-6.498,106.21
476.531286703,0.106,0.1011,0.9551,5.757,-6.334,106.397
476.631289763,0.1138,0.146,1.0073,5.773,-6.191,106.661
476.731294934,0.1279,0.1626,1.0771,5.933,-6.257,106.87
476.831312327,0.1167,0.1177,1.0957,6.092,-6.301,106.957
476.931289628,0.0786,0.1152,0.9014,6.301,-6.295,107.095
477.031320633,0.1123,0.1411,1.0537,6.328,-6.339,107.254
477.131324193,0.1333,0.1499,1.0151,6.394,-6.334,107.452
477.231327697,0.0889,0.1626,1.0,6.454,-6.323,107.534
477.331327795,0.1392,0.1602,1.144,6.35,-6.411,107.562
477.431343058,0.1323,0.1099,0.9946,6.361,-6.4,107.468
477.531328322,0.124,0.1362,1.0151,6.443,-6.334,107.347
477.631356141,0.1152,0.1948,1.0352,6.614,-6.295,107.183
477.731362183,0.1455,0.1851,1.1279,6.652,-6.323,106.957
477.831348372,0.1255,0.1313,1.0693,6.762,-6.323,106.765
477.931370766,0.0894,0.1289,0.9683,6.905,-6.301,106.567
478.031362437,0.0903,0.1836,0.8643,7.009,-6.246,106.469
478.131378015,0.1294,0.1284,1.0552,7.059,-6.268,106.452
478.231389594,0.1348,0.1455,1.0811,7.152,-6.301,106.392
478.331365913,0.1108,0.1855,1.0303,7.289,-6.301,106.337
478.431381843,0.0977,0.1899,0.9448,7.366,-6.312,106.21
478.5314107,0.1333,0.1392,1.0762,7.399,-6.35,106.095
478.631394185,0.1265,0.1353,1.0864,7.432,-6.372,105.958
478.731391171,0.1406,0.1733,1.147,7.465,-6.339,105.886
478.831397953,0.1104,0.1904,1.0566,7.63,-6.268,105.699
478.931412328,0.1299,0.1675,1.0635,7.756,-6.295,105.452
479.031399388,0.1499,0.1348,1.1631,7.745,-6.339,105.216
479.131403096,0.0996,0.1055,0.9482,7.844,-6.317,105.117
479.231423082,0.0781,0.1387,0.896,7.954,-6.246,105.068
479.331419827,0.0933,0.1494,0.936,8.004,-6.257,105.04
479.431429517,0.084,0.127,0.9756,8.015,-6.229,104.974
479.531432521,0.0874,0.1226,0.9312,8.141,-6.202,104.996
479.631443729,0.0625,0.1787,1.0938,8.174,-6.147,104.969
479.731441326,0.0713,0.0962,0.8794,8.372,-6.114,104.974
479.831453626,0.0586,0.1802,1.0967,8.366,-6.081,105.128
479.931452797,0.0566,0.1167,1.0405,8.377,-6.048,105.172
480.031450727,0.0747,0.1177,0.9526,8.355,-5.993,105.293
480.131464158,0.0703,0.1602,1.0015,8.256,-5.922,105.337
480.231439792,0.104,0.1523,0.9321,8.19,-5.883,105.309
480.331444425,0.1001,0.0991,1.0264,8.004,-5.867,105.282
480.431460448,0.0815,0.1157,0.9619,7.899,-5.872,105.271
480.531463045,0.0928,0.1479,1.0605,7.74,-5.801,105.298
480.631475142,0.0811,0.1035,0.9199,7.657,-5.696,105.304
480.731485794,0.0991,0.1079,1.0493,7.515,-5.598,105.271
480.831503428,0.1055,0.1221,1.0801,7.438,-5.532,105.271
480.93148958,0.0889,0.1333,0.9595,7.454,-5.361,105.276
481.03149714,0.0625,0.1328,0.9619,7.427,-5.186,105.238
481.13152133,0.0737,0.1055,0.9697,7.289,-5.202,105.046
481.231510667,0.0713,0.0688,0.998,7.059,-5.268,104.952
481.33151682,0.0728,0.1045,1.0459,6.828,-5.356,105.123
481.431502638,0.0645,0.104,1.0137,6.669,-5.411,105.293
481.531525532,0.0581,0.0532,0.9785,6.575,-5.46,105.397
481.631524313,0.0625,0.0869,0.9897,6.52,-5.449,105.441
481.731522281,0.0854,0.0771,0.9932,6.553,-5.394,105.414
481.831519118,0.0591,0.0503,1.0083,6.548,-5.339,105.364
481.931522863,0.0879,0.1226,1.0664,6.52,-5.323,105.386
482.031546904,0.0703,0.084,0.9062,6.537,-5.202,105.287
482.131539167,0.0688,0.1758,1.0908,6.482,-5.136,105.156
482.231536764,0.1113,0.1367,1.0869,6.394,-5.175,104.985
482.331564991,0.0835,0.1484,1.0913,6.295,-5.136,104.881
482.43156468,0.104,0.0767,0.9712,6.257,-5.147,104.941
482.531551036,0.1118,0.147,1.1416,6.152,-5.114,104.947
482.631566392,0.1021,0.0806,1.0244,6.191,-5.043,105.013
482.731573562,0.0732,0.1533,1.1079,6.218,-4.933,105.046
482.831577789,0.0879,0.1362,1.0791,6.147,-4.938,104.98
482.931600608,0.1099,0.1528,1.2344,6.004,-4.894,104.771
483.031587038,0.0762,0.0649,1.0142,6.021,-4.834,104.606
483.131590616,0.1094,0.1069,1.0635,6.037,-4.828,104.639
483.231584601,0.1245,0.1445,1.1904,5.982,-4.801,104.667
483.331583216,0.1016,0.0566,0.9951,6.075,-4.812,104.617
483.431616017,0.1133,0.1084,1.02,6.092,-4.796,104.551
483.531590058,0.0654,0.1392,1.0605,6.004,-4.763,104.469
483.631630932,0.0991,0.0649,0.8779,6.081,-4.752,104.398
483.731609899,0.0273,0.1377,1.0322,6.031,-4.686,104.387
483.831613533,0.1123,0.1069,0.958,6.092,-4.675,104.414
483.931611203,0.1118,0.1523,1.0249,6.103,-4.669,104.414
484.031609337,0.0625,0.106,0.9839,6.119,-4.631,104.293
484.131632285,0.0596,0.0688,0.9355,6.103,-4.603,104.238
484.231625104,0.0796,0.1182,1.0488,6.092,-4.614,104.227
484.331639312,0.0679,0.0781,1.0298,6.07,-4.636,104.249
484.431661594,0.0889,0.1636,1.0693,6.086,-4.642,104.156
484.531676357,0.1089,0.1455,1.1733,6.059,-4.653,104.008
484.631674805,0.1006,0.104,1.0957,6.097,-4.62,103.903
484.731668754,0.106,0.1167,1.1265,6.086,-4.57,103.887
484.83168522,0.0874,0.1265,1.1753,6.059,-4.532,103.848
484.931680965,0.0771,0.0664,0.9209,6.086,-4.521,103.738
485.031722728,0.0718,0.1294,0.9883,6.097,-4.526,103.623
485.131684362,0.0898,0.1133,0.9561,6.103,-4.477,103.513
485.231680681,0.0757,0.144,1.0317,6.092,-4.466,103.42
485.331697481,0.0552,0.0972,0.9419,6.092,-4.466,103.315
485.43170767,0.0576,0.0503,0.8755,6.097,-4.427,103.2
485.531720952,0.0693,0.1025,1.1074,6.031,-4.411,103.173
485.631725067,0.084,0.1177,1.1069,6.037,-4.4,103.189
485.731729552,0.083,0.0962,1.166,6.07,-4.356,103.189
485.831730185,0.0581,0.0771,0.9907,6.185,-4.323,103.211
485.93173893,0.0908,0.1445,1.1128,6.196,-4.301,103.211
486.031738397,0.082,0.1206,1.0049,6.273,-4.29,103.195
486.131752382,0.0649,0.1523,1.0054,6.312,-4.274,103.211
486.231737979,0.0786,0.0786,0.9175,6.356,-4.252,103.217
486.331745594,0.022,0.0781,0.9595,6.389,-4.213,103.288
486.431736412,0.0576,0.0991,0.9844,6.454,-4.219,103.299
486.531762027,0.0356,0.1338,0.9727,6.443,-4.164,103.222
486.631772309,0.0903,0.0879,1.1162,6.372,-4.153,103.184
486.731790405,0.0703,0.146,1.1572,6.345,-4.153,103.195
486.831791816,0.0674,0.0747,0.9712,6.416,-4.076,103.222
486.931791394,0.0742,0.0815,0.9673,6.454,-4.026,103.233
487.031788731,0.0654,0.1138,0.9937,6.443,-4.005,103.173
487.131813772,0.0605,0.1074,0.937,6.57,-3.95,103.167
487.231820109,0.0747,0.1929,1.1055,6.608,-3.922,103.184
487.331792705,0.0713,0.1147,0.9683,6.663,-3.856,103.046
487.431803913,0.0527,0.1338,1.062,6.553,-3.84,102.881
487.53181138,0.0547,0.1245,1.0186,6.427,-3.862,102.881
487.631840939,0.0625,0.1328,1.019,6.361,-3.818,102.892
487.731825443,0.063,0.1016,1.1543,6.185,-3.79,102.931
487.831823057,0.043,0.0908,0.9702,6.169,-3.752,102.843
487.931836709,0.0825,0.125,1.0396,6.092,-3.702,102.733
488.031847454,0.0352,0.1084,1.0132,6.053,-3.625,102.717
488.131844365,0.0522,0.0493,0.8687,6.021,-3.576,102.755
488.231837295,0.0459,0.0947,1.0967,5.916,-3.527,102.805
488.331876632,0.0308,0.0786,0.9663,5.938,-3.433,102.832
488.431859117,0.0503,0.0859,1.0889,5.883,-3.34,102.92
488.531872509,0.0498,0.062,1.0322,5.883,-3.252,103.019
488.631851994,0.0503,0.144,1.0747,5.817,-3.17,103.118
488.731854128,0.021,0.0908,1.02,5.641,-3.082,103.107
488.831882965,0.0298,0.063,0.9419,5.378,-3.027,102.997
488.931879746,0.0576,0.0845,1.0039,5.153,-3.054,102.859
489.03187412,0.0103,0.1045,0.9741,5.202,-3.06,102.755
489.131882272,0.0269,0.0981,0.9971,5.186,-2.994,102.744
489.231885442,0.0488,0.1108,1.0347,5.29,-2.939,102.64
489.331923427,0.0513,0.104,1.0664,5.411,-2.917,102.448
489.431918338,0.0601,0.1353,1.0122,5.526,-2.867,102.101
489.531918935,0.0337,0.1309,0.9878,5.603,-2.818,101.794
489.63194129,0.0239,0.0991,0.9106,5.702,-2.785,101.519
489.73194222,0.0361,0.084,1.0469,5.713,-2.741,101.25
489.831966112,0.0317,0.0845,1.0215,5.795,-2.664,101.118
489.931973356,0.0483,0.0972,1.0713,5.806,-2.609,101.118
490.031941008,0.0249,0.0786,1.1602,5.795,-2.571,101.08
490.131961327,0.0615,0.1519,0.9731,5.872,-2.576,101.052
490.231980275,0.0425,0.0957,0.9268,5.883,-2.516,101.063
490.332088482,0.021,0.0659,0.9409,5.9,-2.472,101.036
490.43208756,0.0107,0.1465,1.0698,5.867,-2.45,100.948
490.532091008,0.0449,0.1089,0.9419,5.845,-2.45,100.8
490.632114456,-0.019,0.0996,1.0752,5.845,-2.411,100.673
490.732108163,0.0811,0.1099,1.0659,5.916,-2.45,100.503
490.832109833,0.0391,0.1553,1.1289,5.977,-2.379,100.267
490.932114003,0.0356,0.1211,0.9321,6.053,-2.313,100.025
491.032118081,0.0205,0.1162,0.9541,6.031,-2.274,99.772
491.132104362,0.0591,0.1001,1.0361,6.004,-2.28,99.635
491.232124551,0.0195,0.1514,1.0171,5.949,-2.296,99.558
491.332123832,0.0479,0.0762,0.9595,5.861,-2.28,99.492
491.432128521,0.0249,0.1504,1.0156,5.801,-2.203,99.47
491.532126672,0.0151,0.0479,1.0771,5.702,-2.148,99.443
491.632136843,0.0811,0.0991,1.064,5.795,-2.203,99.591
491.732121198,0.0337,0.0962,1.1064,5.762,-2.153,99.723
491.832144553,0.0562,0.1812,0.9961,5.9,-2.137,99.63
491.932163538,0.04,0.123,0.8989,5.999,-2.142,99.355
492.032139764,0.0083,0.1118,0.9922,5.933,-2.142,99.113
492.132129971,0.0283,0.1177,0.9556,5.878,-2.098,98.882
492.232153956,0.0322,0.1108,1.0635,5.823,-2.115,98.646
492.332135626,0.0312,0.0815,1.0059,5.795,-2.109,98.383
492.432144778,0.041,0.1001,1.0254,5.757,-2.093,98.075
492.532162281,0.064,0.1187,1.0571,5.729,-2.087,97.74
492.632172451,0.042,0.082,0.9971,5.718,-2.109,97.421
492.73216638,0.0083,0.1011,0.9824,5.74,-2.049,97.262
492.832190421,-0.0132,0.1221,0.9282,5.74,-2.005,97.196
492.932205591,-0.0361,0.084,0.96,5.718,-1.923,97.18
493.032185372,-0.041,0.0576,1.0522,5.691,-1.758,97.256
493.132201487,-0.0234,0.1006,1.0356,5.751,-1.626,97.454
493.232201546,-0.0264,0.085,0.8525,5.856,-1.434,97.581
493.332207845,0.0015,0.1426,0.8857,5.944,-1.181,97.586
493.432205793,-0.0898,0.1201,0.7476,6.004,-1.0,97.586
493.532210389,-0.0371,0.1104,0.9341,5.867,-0.879,97.657
493.632215078,-0.0161,0.1055,1.0474,5.784,-0.764,97.646
493.732202192,-0.021,0.0625,1.0044,5.751,-0.714,97.603
493.832225232,-0.0142,0.0679,1.0156,5.735,-0.703,97.586
493.93222681,-0.0005,0.1128,1.0239,5.751,-0.582,97.668
494.032218776,-0.0234,0.1152,1.0132,5.784,-0.428,97.778
494.132229261,-0.0103,0.1504,0.9727,5.79,-0.341,97.894
494.232227838,-0.0254,0.0767,0.937,5.773,-0.308,98.069
494.332222638,-0.0488,0.0566,0.856,5.773,-0.231,98.196
494.432212512,-0.0254,0.0718,0.9429,5.768,-0.154,98.344
494.5322842,-0.0063,0.1196,1.0737,5.729,-0.082,98.569
494.632248518,-0.0093,0.1011,0.9961,5.784,-0.055,98.756
494.732270392,-0.0273,0.0532,0.9189,5.817,-0.022,98.904
494.832277191,-0.0151,0.0796,0.9214,5.878,-0.027,99.091
494.932269973,0.0161,0.1606,1.0781,5.966,-0.049,99.289
495.03230305,0.0044,0.1436,0.9458,6.086,-0.066,99.283
495.132317775,-0.0122,0.1187,1.0298,6.053,-0.093,99.097
495.232289149,-0.0122,0.1187,1.0298,6.053,-0.093,99.097
495.332302782,0.0161,0.1099,1.0562,5.993,-0.181,99.009
495.43231223,-0.021,0.0747,0.9365,5.988,-0.231,99.091
495.532307122,0.0054,0.061,0.9829,5.96,-0.258,99.305
495.632319699,0.02,0.1133,1.0693,5.911,-0.302,99.509
495.732330184,0.0059,0.0791,0.9922,5.806,-0.297,99.75
495.832316854,0.0562,0.0942,1.0425,5.691,-0.286,100.223
495.932311912,0.0122,0.0659,1.0825,5.438,-0.297,100.871
496.032326323,0.0063,0.0474,1.04,5.416,-0.357,101.591
496.132346382,0.0449,0.0874,1.1431,5.449,-0.423,102.343
496.232335404,0.0049,0.1011,1.0073,5.504,-0.363,102.843
496.332351073,-0.0005,0.1074,1.0981,5.433,-0.374,103.03
496.432353817,0.0288,0.1333,1.0928,5.389,-0.522,103.2
496.532367932,0.0327,0.061,1.1426,5.24,-0.599,103.475
496.632382213,0.0386,0.0889,1.0518,5.273,-0.632,103.969
496.732365049,0.002,0.1436,0.9629,5.339,-0.621,104.409
496.832366497,-0.0264,0.0635,0.9746,5.356,-0.626,104.705
496.932380315,0.0112,0.0815,1.1011,5.372,-0.687,105.106
497.032415003,-0.0234,0.1138,0.8877,5.488,-0.637,105.705
497.132426525,-0.0581,0.1289,0.9917,5.367,-0.5,106.447
497.232432269,-0.0483,0.0859,1.04,5.235,-0.406,107.655
497.332426864,-0.062,0.0513,1.0039,5.087,-0.417,109.49
497.432449979,-0.0503,0.0405,1.0522,5.043,-0.401,111.253
497.532438834,-0.043,0.0498,1.0098,5.114,-0.319,112.297
497.632478152,-0.0059,0.1011,1.1006,5.224,-0.247,112.588
497.732464173,-0.0024,0.1323,1.0747,5.334,-0.209,112.478
497.832472491,0.0156,0.126,1.0762,5.378,-0.165,112.11
497.932455679,-0.0308,0.1626,1.0459,5.389,-0.011,111.654
498.03246009,0.0063,0.1309,1.0337,5.35,0.06,111.204
498.132470649,-0.0137,0.1724,1.0977,5.328,0.055,110.797
498.232484726,-0.0317,0.0459,0.8574,5.405,0.0,110.336
498.332496766,0.0195,0.1206,1.0669,5.378,-0.033,109.913
498.432491565,-0.0156,0.1021,0.7656,5.482,-0.011,109.341
498.532496828,-0.0317,0.0928,0.8574,5.438,0.132,108.743
498.632508145,-0.0356,0.1079,0.9336,5.444,0.209,108.226
498.732522074,-0.0171,0.082,0.9526,5.433,0.181,107.759
498.832520318,-0.0371,0.0977,1.04,5.411,0.187,107.183
498.932496969,0.0142,0.167,1.0156,5.422,0.132,106.463
499.032535028,0.021,0.0928,1.0083,5.383,0.088,105.639
499.132512846,0.0068,0.0894,1.0322,5.383,0.126,104.914
499.232532867,0.0073,0.1211,0.9302,5.411,0.176,104.288
499.33250963,0.0195,0.1025,0.9941,5.383,0.22,103.716
499.432528077,0.0278,0.0972,1.04,5.422,0.247,103.195
499.532544377,-0.0225,0.062,0.9946,5.438,0.275,102.75
499.632529028,0.0352,0.0557,0.9673,5.394,0.264,102.486
499.732544938,-0.0107,0.0317,0.9658,5.449,0.236,102.332
499.832560348,0.0034,0.0654,1.0386,5.394,0.214,102.206
499.932560574,-0.0503,0.0273,1.019,5.416,0.137,102.063
500.032570854,-0.0122,0.0474,0.9077,5.394,0.115,102.047
500.132583672,0.0269,0.0962,1.0908,5.317,0.066,102.057
500.232583786,0.0186,0.0986,1.0688,5.323,-0.022,102.074
500.332583697,0.0176,0.0737,1.0664,5.24,-0.11,102.101
500.432587033,0.0171,0.0845,1.0161,5.24,-0.192,102.239
500.53253148,0.0215,0.1299,1.0928,5.208,-0.258,102.387
500.632578002,0.021,0.0688,1.0552,5.191,-0.319,102.601
500.732597968,0.0073,0.0781,1.0171,5.197,-0.341,102.722
500.832599026,-0.0029,0.0659,1.0156,5.186,-0.363,102.975
500.932620918,0.0029,0.0449,0.9595,5.24,-0.406,103.189
501.032620699,0.0098,0.0752,0.9897,5.29,-0.374,103.387
501.132607017,-0.0591,0.103,0.9668,5.356,-0.187,103.667
501.232650408,-0.0029,0.0879,1.0166,5.394,0.011,103.909
501.332644837,-0.0337,0.0811,0.9702,5.405,0.22,104.095
501.432623359,-0.0156,0.063,0.9209,5.433,0.324,104.222
501.532645676,-0.0405,0.0757,1.1216,5.262,0.346,104.321
501.632657661,-0.0293,0.0757,1.0083,5.268,0.313,104.48
501.732657404,-0.0156,0.0796,1.1211,5.273,0.308,104.705
501.832649518,0.0054,0.1074,1.1743,5.323,0.264,104.897
501.932667966,-0.0283,0.1538,0.9189,5.532,0.231,104.623
502.03267258,0.0127,0.0825,0.9536,5.565,0.225,104.183
502.132673786,-0.0029,0.0669,1.0532,5.504,0.214,104.008
502.23267766,-0.0342,0.1089,1.0933,5.427,0.214,104.035
502.332681459,-0.002,0.085,1.0508,5.389,0.176,104.073
502.43269598,0.0103,0.0532,1.0532,5.361,0.198,104.079
502.532693668,-0.0493,0.1099,0.9873,5.471,0.253,104.15
502.632687412,-0.0083,0.1152,1.0024,5.537,0.269,104.09
502.732692303,-0.0161,0.1089,0.9355,5.62,0.269,103.804
502.832707177,-0.0181,0.1836,0.9966,5.718,0.341,103.442
502.932707402,-0.0361,0.1343,1.0205,5.757,0.385,103.173
503.032696442,-0.0151,0.1577,1.022,5.74,0.374,103.085
503.132710241,0.021,0.0737,0.9595,5.674,0.396,103.052
503.232722892,-0.0259,0.0376,1.041,5.63,0.45,103.145
503.332730061,-0.0132,0.1006,1.0918,5.592,0.494,103.326
503.432711601,-0.0049,0.0679,1.0889,5.609,0.516,103.332
503.532744104,-0.0176,0.1104,1.0391,5.702,0.577,103.282
503.632741588,-0.0181,0.1567,0.9468,5.751,0.555,103.239
503.732755369,-0.0254,0.1392,1.0376,5.773,0.544,103.189
503.832791705,-0.0142,0.144,1.0024,5.812,0.555,103.041
503.932782393,-0.0723,0.042,0.9097,5.872,0.549,102.827
504.032768673,0.062,0.0801,1.2017,5.883,0.527,102.997
504.132818547,-0.0581,0.1016,0.7773,6.383,0.61,103.502
504.232830253,0.0444,0.1392,1.1182,6.422,0.769,104.178
504.332831904,-0.0122,0.1172,0.8809,6.844,0.84,104.496
504.432840481,-0.0103,0.1758,1.0933,6.883,0.89,104.628
504.532841132,0.0083,0.2222,1.1489,6.669,0.835,104.431
504.632844208,-0.0249,0.0933,1.0439,6.35,0.725,104.008
504.732827341,-0.0146,0.0757,1.1445,5.966,0.698,104.068
504.83285164,-0.0356,0.0732,1.0522,5.85,0.615,104.551
504.932858606,-0.0142,0.0806,1.0229,5.806,0.516,104.996
505.032871201,0.0039,0.1196,1.0269,5.905,0.577,105.062
505.13287537,0.0112,0.085,0.9395,5.971,0.681,105.018
505.23290228,0.0049,0.1567,0.9985,6.158,0.676,104.848
505.332873765,-0.0044,0.0703,1.1104,6.108,0.681,104.799
505.432885138,0.0044,0.1133,0.9307,6.273,0.698,104.93
505.532893603,-0.0093,0.1333,1.1128,6.306,0.736,104.985
505.632899365,-0.0063,0.1201,1.0259,6.4,0.687,104.963
505.732886942,0.0039,0.1406,1.0718,6.356,0.621,104.771
505.832924056,-0.04,0.084,0.9146,6.356,0.654,104.634
505.93291791,-0.0288,0.0835,1.0298,6.262,0.725,104.716
506.032909358,0.0005,0.0376,1.043,6.196,0.698,105.013
506.132931045,-0.0039,0.0952,1.0376,6.158,0.659,105.194
506.232930696,-0.0327,0.1353,0.9043,6.218,0.676,105.364
506.332946514,-0.0288,0.1089,1.0444,6.158,0.742,105.562
506.432936961,0.0303,0.0957,1.1919,6.021,0.736,105.601
506.532920834,-0.0464,0.0908,0.8291,6.103,0.797,105.661
506.632956818,-0.0391,0.0137,1.0757,5.982,0.923,105.831
506.732966728,0.0161,0.1416,0.9897,6.015,0.923,106.051
506.832963619,0.0112,0.0762,1.1626,5.955,0.89,106.144
506.932962641,-0.0103,0.1606,0.9717,6.026,0.89,106.15
507.032956236,0.0029,0.0679,1.0811,6.031,0.923,106.243
507.132970183,-0.0254,0.0889,1.0488,6.01,0.901,106.447
507.232956019,0.0122,0.144,1.0264,5.993,0.802,106.705
507.332972244,-0.0229,0.0747,0.8428,5.971,0.764,106.71
507.432959987,-0.0376,0.1182,1.1099,5.867,0.84,106.859
507.532966267,-0.0234,0.0679,0.8682,5.889,0.818,106.919
507.632986326,-0.0186,0.0532,0.8633,5.779,0.758,106.941
507.732980828,-0.0078,0.0718,1.1025,5.647,0.797,106.957
507.832988053,-0.0303,0.0869,0.9219,5.548,0.818,107.095
507.932979778,-0.0059,0.0605,1.0903,5.323,0.769,107.133
508.032992336,0.0142,0.0059,1.0068,5.246,0.731,107.122
508.132976116,-0.0151,0.0854,0.9561,5.098,0.736,107.243
508.233004582,-0.0068,0.0444,0.9937,5.076,0.769,107.49
508.332990714,-0.0176,0.0366,0.9863,5.037,0.829,107.726
508.433004698,-0.0181,0.0811,1.0405,4.999,0.764,107.869
508.533011108,-0.0327,0.1147,1.0703,4.966,0.692,107.661
508.633022907,-0.0044,0.0703,1.0845,4.999,0.588,107.216
508.733025687,0.0146,0.0806,1.2212,4.927,0.461,106.853
508.833031967,-0.0317,0.1572,0.9434,5.076,0.505,107.43
508.933020192,-0.0312,0.0796,1.0044,5.103,0.621,108.732
509.033042676,0.021,0.0088,1.1147,5.087,0.637,109.594
509.133048716,0.0068,0.1035,0.8433,5.273,0.637,110.045
509.23304807,-0.0054,0.105,1.061,5.323,0.709,110.511
509.333053054,0.0098,0.125,1.0728,5.312,0.786,110.781
509.433059057,-0.0098,0.1069,0.9966,5.521,0.758,111.028
509.533071874,-0.0186,0.0342,0.9023,5.532,0.797,111.237
509.633064265,-0.0181,0.0913,1.0029,5.658,0.786,111.583
509.733068731,-0.0054,0.0522,1.0996,5.674,0.731,112.0
509.833088881,0.0269,0.1401,1.1353,5.707,0.626,112.418
509.933089699,0.0005,0.1025,1.0439,5.845,0.61,112.714
510.033095127,-0.0127,0.0947,1.0308,5.911,0.637,113.082
510.13310263,-0.0186,0.1152,1.0718,5.96,0.582,113.643
510.23310804,-0.0757,0.1079,0.9917,5.977,0.698,114.258
510.333114394,-0.0879,0.0693,0.876,6.097,0.884,114.84
510.433109859,-0.0225,0.085,1.2144,6.01,1.121,115.554
510.533114936,-0.1182,0.104,0.8345,6.13,1.324,116.461
510.633101846,-0.0503,0.1089,1.2798,5.982,1.511,117.307
510.733116533,-0.167,0.0981,0.8975,6.13,1.664,118.043
510.833105388,-0.0728,0.0483,1.0547,6.037,1.835,118.663
510.93311776,-0.1021,0.0986,0.8892,6.092,2.038,119.333
511.033145837,-0.0522,0.1118,1.2061,5.966,2.324,119.965
511.133141765,-0.1611,0.0991,0.9131,6.103,2.609,120.504
511.233138694,-0.0537,0.0435,1.0186,6.114,2.78,121.108
511.333159974,-0.1113,0.1084,1.0269,6.119,2.939,121.74
511.43316368,-0.1504,0.1748,1.1782,6.13,3.203,122.36
511.533192201,-0.0591,0.1006,0.9717,6.218,3.411,123.003
511.633203555,-0.187,0.1348,0.9741,6.301,3.763,123.668
511.733215428,-0.1338,0.1191,1.1353,6.279,4.032,124.519
511.833212727,-0.0967,0.1084,0.9443,6.389,4.191,125.206
511.933237155,-0.1548,0.1616,1.0698,6.498,4.389,125.903
512.033220398,-0.1021,0.0938,1.0933,6.52,4.592,126.524
512.133225493,-0.0635,0.1201,1.0806,6.592,4.746,127.007
512.233233384,-0.1704,0.1138,0.9502,6.663,4.856,127.513
512.333238072,-0.0742,0.1396,1.0449,6.57,4.966,128.035
512.433225796,-0.0596,0.0776,0.9414,6.625,5.01,128.381
512.533249169,-0.104,0.1699,1.0444,6.63,5.004,128.787
512.633253172,-0.1362,0.1792,1.0923,6.68,5.015,129.095
512.733241989,-0.0957,0.1328,1.0522,6.784,5.048,129.364
512.833256065,-0.0776,0.1274,1.0542,6.905,4.96,129.65
512.933249105,-0.0469,0.1284,0.9722,7.081,4.85,129.738
513.033240292,-0.0806,0.1362,0.8857,7.224,4.785,129.919
513.133267831,-0.0181,0.1421,1.0034,7.289,4.57,129.946
513.233266278,-0.0103,0.1743,1.0913,7.311,4.34,129.919
513.333269762,-0.019,0.1694,1.1343,7.432,4.092,129.908
513.433286376,-0.041,0.0957,0.9102,7.559,3.906,129.814
513.53328623,-0.0161,0.2041,1.0386,7.63,3.724,129.924
513.633286251,-0.0264,0.1147,0.981,7.668,3.571,129.864
513.733293197,-0.0352,0.1182,0.9492,7.679,3.433,129.941
513.833298811,-0.0503,0.186,1.0254,7.745,3.279,130.012
513.933315609,-0.0322,0.166,1.104,7.751,3.126,130.04
514.033349093,-0.0146,0.208,1.0518,7.773,2.972,130.166
514.133365058,-0.0083,0.1309,0.96,7.811,2.829,130.15
514.233347116,-0.0415,0.1309,0.9209,7.806,2.774,130.281
514.333348619,-0.0132,0.1455,1.0034,7.773,2.664,130.281
514.43336388,-0.0347,0.082,0.9648,7.729,2.494,130.364
514.533367142,-0.0293,0.1167,1.0747,7.646,2.433,130.435
514.633384144,-0.0293,0.1338,0.9971,7.641,2.461,130.468
514.733424017,-0.0483,0.1187,1.0645,7.592,2.357,130.556
514.833413037,-0.0361,0.1055,0.9365,7.57,2.192,130.501
514.933389114,-0.0249,0.1191,1.1016,7.383,2.071,130.627
515.033423801,-0.0293,0.0435,0.8442,7.383,1.983,130.562
515.133406192,-0.0151,0.1206,1.042,7.185,1.923,130.655
515.233417713,-0.021,0.0981,0.9946,7.119,1.89,130.556
515.333409437,-0.0234,0.1265,0.9639,6.949,1.868,130.644
515.433448403,-0.0024,0.1006,1.0596,6.779,1.873,130.452
515.533419905,-0.0747,0.0957,0.9131,6.647,1.895,130.512
515.633450685,-0.0127,0.0854,1.0396,6.432,1.95,130.369
515.733457521,-0.0776,0.0986,1.0073,6.262,2.049,130.485
515.833469671,-0.0259,0.061,0.8931,6.136,2.093,130.386
515.933453099,-0.082,0.1147,1.0122,5.966,2.175,130.419
516.033450435,-0.0479,0.064,0.8413,5.883,2.214,130.265
516.133466196,-0.063,0.0762,0.9849,5.702,2.247,130.292
516.233470254,-0.0435,0.0806,0.9253,5.581,2.302,130.106
516.333502404,-0.0947,0.0869,0.9653,5.389,2.373,129.996
516.433480777,-0.0742,0.0498,0.9033,5.219,2.428,129.677
516.533536205,-0.0942,0.0366,1.0264,4.993,2.461,129.606
516.63357217,-0.0596,0.0767,1.1348,4.801,2.538,129.446
516.733549117,-0.0742,0.0522,1.0957,4.664,2.576,129.37
516.833530082,-0.0596,0.041,1.0083,4.609,2.642,129.21
516.933559047,-0.0898,0.1094,0.98,4.504,2.686,129.117
517.033650883,-0.0898,0.0654,1.0347,4.384,2.807,129.018
517.133645514,-0.1001,0.0806,1.0439,4.334,2.906,128.881
517.233671887,-0.0903,0.0762,0.9565,4.301,2.955,128.963
517.333664574,-0.0737,0.0996,1.0298,4.257,3.049,128.782
517.433671039,-0.0938,0.0737,1.0669,4.208,3.197,128.765
517.533670097,-0.1772,0.0786,1.0107,4.197,3.395,128.76
517.633681118,-0.2012,0.1089,0.9888,4.213,3.615,128.903
517.733660564,-0.1919,0.1221,1.0078,4.186,3.9,129.265
517.833705233,-0.1738,0.082,1.0469,4.07,4.257,129.419
517.93369242,-0.1787,0.123,1.1567,3.961,4.587,129.716
518.033709849,-0.166,0.0938,1.0264,3.939,4.878,130.045
518.13371548,-0.1455,0.0811,0.9644,3.922,5.109,130.034
518.233699279,-0.1431,0.063,1.0596,3.834,5.29,130.182
518.333708262,-0.1675,0.0825,1.042,3.807,5.51,130.182
518.433724227,-0.1392,0.0928,1.0078,3.801,5.696,130.095
518.533719433,-0.1382,0.0864,1.0034,3.79,5.784,130.139
518.633730343,-0.127,0.0894,1.1001,3.779,5.889,130.078
518.733720493,-0.127,0.0806,0.9873,3.79,6.004,129.787
518.833727347,-0.1328,0.1006,1.062,3.829,6.064,129.589
518.933732682,-0.0723,0.0786,1.0566,3.845,6.015,129.446
519.033753314,-0.0801,0.0737,0.9946,3.906,5.933,129.056
