Time,AccX,AccY,AccZ,AngleX,AngleY,AngleZ
1527.728613018,,,,,,
1527.828613025,-0.0039,-0.0107,1.0093,-0.692,-0.22,158.873
1527.928613105,0.0049,-0.0142,1.0103,-0.692,-0.225,158.873
1528.028613131,0.0083,-0.0083,1.0098,-0.692,-0.22,158.873
1528.128614026,0.0103,-0.0034,1.0098,-0.692,-0.225,158.873
1528.22861407,0.0093,-0.0122,1.0098,-0.692,-0.225,158.873
1528.328614188,-0.0005,-0.0107,1.0088,-0.692,-0.225,158.873
1528.42861422,0.001,-0.0205,1.0093,-0.687,-0.225,158.873
1528.528619826,0.0,-0.0151,1.0093,-0.681,-0.225,158.873
1528.628619896,0.0049,-0.0083,1.0107,-0.681,-0.225,158.873
1528.728619965,0.0098,-0.0059,1.0103,-0.676,-0.225,158.873
1528.828620072,0.0088,-0.0103,1.0088,-0.676,-0.22,158.873
1528.928620104,0.0024,-0.0137,1.0103,-0.676,-0.225,158.873
1529.028620229,-0.001,-0.0146,1.0093,-0.67,-0.225,158.873
1529.128620262,0.002,-0.0151,1.0093,-0.67,-0.225,158.873
1529.228622165,0.0073,-0.0127,1.0098,-0.67,-0.225,158.873
1529.328622215,0.0073,-0.0098,1.0093,-0.67,-0.225,158.873
1529.428622235,0.002,-0.0122,1.0098,-0.676,-0.225,158.873
1529.52862233,0.0,-0.0166,1.0103,-0.676,-0.231,158.873
1529.628622332,0.0029,-0.0151,1.0098,-0.676,-0.231,158.873
1529.728626796,0.0059,-0.0107,1.0098,-0.676,-0.231,158.873
1529.828626853,0.0063,-0.0078,1.0098,-0.681,-0.231,158.873
1529.928626911,0.0059,-0.0093,1.0093,-0.681,-0.231,158.873
1530.028627024,0.0039,-0.0142,1.0093,-0.681,-0.231,158.873
1530.128627081,0.002,-0.0161,1.0093,-0.681,-0.231,158.873
1530.228629749,0.001,-0.0142,1.0098,-0.687,-0.231,158.873
1530.328629861,0.0044,-0.0117,1.0098,-0.687,-0.231,158.873
1530.428632719,0.0073,-0.0098,1.0103,-0.687,-0.231,158.873
1530.528632745,0.0063,-0.0098,1.0093,-0.687,-0.231,158.873
1530.628632827,0.0034,-0.0127,1.0103,-0.687,-0.236,158.873
1530.728632945,0.001,-0.0156,1.0098,-0.687,-0.236,158.873
1530.828632971,0.0024,-0.0142,1.0093,-0.687,-0.236,158.873
1530.928633052,0.0049,-0.0122,1.0098,-0.687,-0.236,158.873
1531.028633059,0.0063,-0.0093,1.0093,-0.687,-0.236,158.873
1531.128633178,0.0054,-0.0103,1.0103,-0.687,-0.236,158.873
1531.228633259,0.0059,-0.0107,1.0093,-0.687,-0.236,158.873
1531.328633283,0.002,-0.0146,1.0098,-0.692,-0.236,158.873
1531.428633294,0.001,-0.0098,1.0098,-0.692,-0.236,158.873
1531.528633343,0.0054,-0.0098,1.0098,-0.692,-0.236,158.873
1531.628633373,0.0127,-0.0063,1.0098,-0.692,-0.236,158.873
1531.728633404,0.0049,-0.0088,1.0107,-0.692,-0.242,158.873
1531.828633434,0.0,-0.0117,1.0098,-0.692,-0.242,158.873
1531.92863352,0.0015,-0.0176,1.0088,-0.692,-0.242,158.873
1532.028633569,0.0059,-0.0146,1.0103,-0.692,-0.242,158.873
1532.12863358,0.0015,-0.0103,1.0107,-0.692,-0.242,158.873
1532.228633648,-0.0005,-0.0103,1.0083,-0.692,-0.242,158.873
1532.328638489,0.0059,-0.0112,1.0098,-0.692,-0.242,158.873
1532.428638522,0.0083,-0.0117,1.0093,-0.692,-0.236,158.873
1532.528638593,-0.0039,-0.0117,1.0098,-0.698,-0.242,158.873
1532.628638627,0.0054,-0.019,1.0088,-0.698,-0.242,158.873
1532.728638661,0.0073,-0.0142,1.0093,-0.698,-0.242,158.873
1532.828638787,0.0015,-0.0078,1.0098,-0.698,-0.242,158.873
1532.928638802,0.002,-0.0117,1.0083,-0.698,-0.242,158.873
1533.028638836,0.0024,-0.0098,1.0088,-0.698,-0.247,158.873
1533.128638925,0.0044,-0.0088,1.0093,-0.698,-0.247,158.873
1533.228638978,0.0083,-0.0024,1.0098,-0.698,-0.253,158.873
1533.328639065,0.0083,-0.0112,1.0093,-0.698,-0.253,158.873
1533.42863912,0.0068,-0.0171,1.0088,-0.692,-0.258,158.873
1533.528639231,0.001,-0.0142,1.0098,-0.692,-0.258,158.873
1533.628639267,0.0015,-0.0132,1.0098,-0.698,-0.258,158.873
1533.72863934,0.0078,-0.0122,1.0093,-0.698,-0.264,158.873
1533.828639395,0.0044,-0.0093,1.0098,-0.692,-0.264,158.873
1533.928639487,0.0068,-0.0137,1.0093,-0.692,-0.264,158.873
1534.02863956,0.0024,-0.0161,1.0093,-0.692,-0.264,158.873
1534.128639671,-0.0015,-0.0161,1.0083,-0.692,-0.264,158.873
1534.228639726,0.0,-0.0107,1.0093,-0.692,-0.264,158.873
1534.328639759,0.0083,-0.0127,1.0093,-0.692,-0.264,158.873
1534.428639853,0.0078,-0.0137,1.0093,-0.698,-0.258,158.873
1534.528639873,0.0044,-0.0098,1.0098,-0.698,-0.258,158.873
1534.628648094,0.0024,-0.0112,1.0088,-0.698,-0.258,158.873
1534.728648095,0.0039,-0.0146,1.0093,-0.698,-0.253,158.873
1534.828652059,0.0054,-0.0112,1.0093,-0.698,-0.253,158.873
1534.928652115,0.0029,-0.0078,1.0103,-0.698,-0.253,158.873
1535.028655171,0.0059,-0.0098,1.0093,-0.703,-0.253,158.873
1535.128655191,0.0039,-0.0137,1.0088,-0.703,-0.247,158.873
1535.228655247,0.0015,-0.0156,1.0098,-0.703,-0.247,158.873
1535.328655338,0.002,-0.0142,1.0103,-0.703,-0.247,158.873
1535.428655432,0.0034,-0.0137,1.0098,-0.703,-0.247,158.873
1535.528655508,0.0034,-0.0098,1.0093,-0.703,-0.247,158.873
1535.628655547,0.0029,-0.0117,1.0093,-0.703,-0.247,158.873
1535.728655567,0.0044,-0.0166,1.0093,-0.703,-0.247,158.873
1535.82865568,0.002,-0.0117,1.0103,-0.703,-0.247,158.873
1535.928658385,0.0049,-0.0083,1.0093,-0.703,-0.247,158.873
1536.028658386,0.0078,-0.0132,1.0098,-0.703,-0.247,158.873
1536.128658499,0.0029,-0.0137,1.0093,-0.703,-0.247,158.873
1536.228658575,0.002,-0.0122,1.0103,-0.703,-0.242,158.873
1536.328658591,0.0059,-0.0137,1.0098,-0.703,-0.242,158.873
1536.428658612,0.0059,-0.0176,1.0093,-0.703,-0.242,158.873
1536.528661779,0.0039,-0.0117,1.0098,-0.703,-0.242,158.873
1536.628661837,0.001,-0.0059,1.0098,-0.703,-0.242,158.873
1536.728661857,0.0044,-0.0127,1.0093,-0.703,-0.242,158.873
1536.828661895,0.0059,-0.0171,1.0093,-0.703,-0.242,158.873
1536.928661971,0.0034,-0.0117,1.0098,-0.703,-0.242,158.873
1537.028662065,0.0049,-0.0122,1.0093,-0.703,-0.242,158.873
1537.128662104,0.0059,-0.0107,1.0103,-0.703,-0.242,158.873
1537.228662124,0.002,-0.0122,1.0098,-0.703,-0.242,158.873
1537.328662177,0.002,-0.0103,1.0093,-0.703,-0.242,158.873
1537.428662196,0.0054,-0.0107,1.0093,-0.703,-0.242,158.873
1537.52866764,0.0039,-0.02,1.0093,-0.703,-0.242,158.873
1537.628667715,0.0015,-0.0151,1.0098,-0.703,-0.242,158.873
1537.728667716,0.0029,-0.0073,1.0098,-0.703,-0.242,158.873
1537.828667809,0.0054,-0.0112,1.0098,-0.703,-0.242,158.873
1537.928667902,0.0054,-0.0146,1.0093,-0.703,-0.242,158.873
1538.028667996,0.0024,-0.0107,1.0093,-0.703,-0.242,158.873
1538.128668052,0.0059,-0.0137,1.0098,-0.703,-0.242,158.873
1538.228668052,0.0039,-0.0137,1.0093,-0.703,-0.242,158.873
1538.328671103,0.0015,-0.0103,1.0093,-0.703,-0.242,158.873
1538.428671175,0.0029,-0.0083,1.0093,-0.709,-0.242,158.873
1538.528671285,0.0068,-0.0132,1.0098,-0.703,-0.242,158.873
1538.628675228,0.0029,-0.0142,1.0093,-0.709,-0.242,158.873
1538.72867532,0.0044,-0.0127,1.0093,-0.709,-0.236,158.873
1538.828675356,0.0015,-0.0093,1.0098,-0.709,-0.242,158.873
1538.928675391,0.0049,-0.0122,1.0098,-0.703,-0.242,158.873
1539.028677946,0.0059,-0.0161,1.0093,-0.703,-0.242,158.873
1539.128678018,0.0059,-0.0166,1.0093,-0.703,-0.242,158.873
1539.228678073,0.001,-0.0103,1.0093,-0.703,-0.242,158.873
1539.328678195,0.0024,-0.0151,1.0093,-0.703,-0.236,158.873
1539.428678284,0.0024,-0.0156,1.0093,-0.703,-0.242,158.873
1539.528678354,0.0,-0.0015,1.0088,-0.709,-0.242,158.873
1539.628678424,0.0063,-0.0059,1.0098,-0.709,-0.236,158.873
1539.728678513,0.0073,-0.0225,1.0093,-0.714,-0.236,158.873
1539.82867862,0.002,-0.0176,1.0093,-0.714,-0.236,158.873
1539.928678672,-0.0029,-0.0103,1.0098,-0.714,-0.231,158.873
1540.028678761,0.0029,-0.0103,1.0093,-0.72,-0.231,158.873
1540.128684516,0.0112,-0.0122,1.0093,-0.72,-0.231,158.873
1540.228684549,0.0093,-0.0103,1.0098,-0.72,-0.225,158.873
1540.328684593,0.0024,-0.0093,1.0093,-0.72,-0.22,158.873
1540.428684697,-0.001,-0.0137,1.0088,-0.72,-0.22,158.873
1540.528687375,0.0034,-0.021,1.0093,-0.72,-0.22,158.873
1540.628687405,0.0059,-0.0142,1.0093,-0.725,-0.22,158.873
1540.728687434,0.0054,-0.0068,1.0103,-0.725,-0.22,158.873
1540.828687483,0.0083,-0.0127,1.0093,-0.731,-0.22,158.873
1540.928690938,0.0039,-0.0127,1.0093,-0.731,-0.214,158.873
1541.028690986,-0.001,-0.0054,1.0093,-0.736,-0.214,158.873
1541.128690997,0.0049,-0.0142,1.0098,-0.742,-0.214,158.873
1541.228691046,0.0054,-0.0132,1.0093,-0.742,-0.214,158.873
1541.328691104,0.0049,-0.0088,1.0103,-0.742,-0.214,158.873
1541.428691148,0.0068,-0.0132,1.0103,-0.742,-0.214,158.873
1541.528691192,0.0034,-0.0137,1.0103,-0.742,-0.214,158.873
1541.628691199,0.0024,-0.0142,1.0098,-0.742,-0.214,158.873
1541.728696224,0.0049,-0.0122,1.0098,-0.742,-0.214,158.873
1541.828696324,0.0059,-0.0068,1.0093,-0.742,-0.214,158.873
1541.928696386,0.0068,-0.0132,1.0103,-0.742,-0.22,158.873
1542.028696412,0.0063,-0.0098,1.0103,-0.742,-0.22,158.873
1542.128696474,0.0029,-0.0107,1.0098,-0.736,-0.22,158.873
1542.228696518,0.0015,-0.0122,1.0088,-0.736,-0.225,158.873
1542.328696535,0.0054,-0.0186,1.0098,-0.731,-0.225,158.873
1542.428696611,0.0034,-0.0146,1.0098,-0.731,-0.225,158.873
1542.528696613,0.0044,-0.0078,1.0093,-0.731,-0.225,158.873
1542.628696633,0.0068,-0.0107,1.0093,-0.731,-0.231,158.873
1542.728696709,0.0049,-0.0127,1.0103,-0.725,-0.231,158.873
1542.82869673,-0.0005,-0.0093,1.0088,-0.725,-0.231,158.873
1542.928696843,0.0049,-0.0156,1.0093,-0.725,-0.231,158.873
1543.0286969,0.0059,-0.0171,1.0107,-0.72,-0.231,158.873
1543.128696939,0.0,-0.0093,1.0088,-0.72,-0.231,158.873
1543.228697015,0.0015,-0.0093,1.0093,-0.72,-0.236,158.873
1543.328697081,0.0063,-0.0146,1.0103,-0.72,-0.236,158.873
1543.428697133,0.0063,-0.0132,1.0098,-0.72,-0.236,158.873
1543.528697184,0.0049,-0.0112,1.0093,-0.72,-0.236,158.873
1543.62869731,0.0034,-0.0098,1.0098,-0.72,-0.236,158.873
1543.728697332,0.0044,-0.0107,1.0093,-0.72,-0.236,158.873
1543.828697397,0.0078,-0.0117,1.0093,-0.72,-0.236,158.873
1543.928697444,0.0088,-0.0142,1.0103,-0.714,-0.236,158.873
1544.028697509,0.0024,-0.0132,1.0093,-0.714,-0.236,158.873
1544.128697574,-0.001,-0.0103,1.0093,-0.714,-0.236,158.873
1544.228697639,0.0,-0.0132,1.0088,-0.714,-0.236,158.873
1544.328697652,0.0078,-0.0112,1.0093,-0.714,-0.236,158.873
1544.428697684,0.0107,-0.0112,1.0107,-0.714,-0.236,158.873
1544.528698031,0.0039,-0.0083,1.0098,-0.714,-0.242,158.873
1544.628698045,0.0005,-0.0073,1.0088,-0.714,-0.242,158.873
1544.728698059,0.0054,-0.0146,1.0098,-0.709,-0.242,158.873
1544.82869811,0.0083,-0.02,1.0098,-0.709,-0.242,158.873
1544.928698142,0.0034,-0.0132,1.0098,-0.709,-0.242,158.873
1545.02869823,-0.0015,-0.0078,1.0083,-0.709,-0.242,158.873
1545.128698244,0.0015,-0.0093,1.0103,-0.709,-0.242,158.873
1545.228698295,0.0083,-0.0151,1.0103,-0.709,-0.242,158.873
1545.328698385,0.0049,-0.0112,1.0088,-0.714,-0.242,158.873
1545.428698404,0.001,-0.0103,1.0107,-0.714,-0.242,158.873
1545.528698423,0.0063,0.0005,1.0098,-0.709,-0.242,158.873
1545.628698461,0.0112,-0.0073,1.0098,-0.714,-0.236,158.873
1545.72869848,0.0063,-0.0181,1.0098,-0.72,-0.236,158.873
1545.828698554,-0.0015,-0.0171,1.0098,-0.72,-0.236,158.873
1545.928701333,-0.0024,-0.0117,1.0098,-0.72,-0.231,158.873
1546.028701426,0.0049,-0.0122,1.0103,-0.72,-0.231,158.873
1546.128701482,0.0122,-0.0098,1.0098,-0.72,-0.231,158.873
1546.228701538,0.0068,-0.0117,1.0098,-0.72,-0.225,158.868
1546.328701542,-0.002,-0.0215,1.0088,-0.725,-0.225,158.868
1546.428701624,-0.0049,0.0093,1.0088,-0.72,-0.22,158.868
1546.528701686,0.0073,0.0039,1.0112,-0.725,-0.225,158.868
1546.628701693,0.0215,-0.0254,1.0107,-0.731,-0.225,158.868
1546.728701738,0.0039,-0.021,1.0083,-0.725,-0.214,158.868
1546.828701763,-0.02,-0.0049,1.0078,-0.725,-0.209,158.868
1546.928701863,0.0234,-0.019,1.0117,-0.731,-0.22,158.868
1547.02870187,0.0244,-0.0156,1.0088,-0.736,-0.22,158.868
1547.128701952,-0.0103,-0.0005,1.0093,-0.731,-0.209,158.868
1547.228701959,-0.0093,-0.02,1.0098,-0.742,-0.209,158.868
1547.32870199,0.0088,-0.0308,1.0078,-0.747,-0.214,158.868
1547.428702099,0.0098,-0.0068,1.0088,-0.742,-0.214,158.868
1547.528702114,0.0044,0.0044,1.0103,-0.742,-0.214,158.868
1547.628702167,0.0112,-0.0142,1.0103,-0.747,-0.214,158.868
1547.728702183,0.0054,-0.0166,1.0107,-0.747,-0.214,158.868
1547.828702235,-0.0083,-0.0107,1.0083,-0.747,-0.209,158.868
1547.928702306,-0.0005,-0.0181,1.0093,-0.747,-0.209,158.868
1548.028702322,0.0103,-0.0176,1.0093,-0.747,-0.214,158.868
1548.128702375,0.0073,-0.0049,1.0103,-0.747,-0.209,158.868
1548.228702409,0.0034,-0.0034,1.0098,-0.747,-0.209,158.868
1548.328702432,0.0063,-0.0171,1.0103,-0.753,-0.209,158.868
1548.428702458,0.0034,-0.0186,1.0098,-0.753,-0.209,158.868
1548.528702483,-0.0015,-0.0093,1.0093,-0.753,-0.209,158.868
1548.628702509,0.0049,-0.0083,1.0088,-0.753,-0.209,158.868
1548.728702572,0.0112,-0.0137,1.0093,-0.753,-0.214,158.868
1548.828702672,0.0063,-0.0142,1.0093,-0.753,-0.209,158.868
1548.928702679,-0.002,-0.0088,1.0098,-0.747,-0.209,158.868
1549.028702724,0.0024,-0.0122,1.0093,-0.747,-0.209,158.868
1549.128702768,0.0103,-0.0151,1.0093,-0.747,-0.209,158.868
1549.228702794,0.0088,-0.0107,1.0098,-0.742,-0.209,158.868
1549.328702865,0.0,-0.0073,1.0098,-0.742,-0.214,158.868
1549.428702866,-0.0015,-0.0127,1.0103,-0.736,-0.214,158.868
1549.528702903,0.0054,-0.0186,1.0098,-0.736,-0.214,158.868
1549.628702959,0.0068,-0.0137,1.0093,-0.731,-0.214,158.868
1549.728703015,0.0034,-0.0073,1.0088,-0.731,-0.214,158.868
1549.828703035,0.0024,-0.0093,1.0098,-0.731,-0.22,158.868
1549.928703072,0.0063,-0.0156,1.0093,-0.731,-0.22,158.868
1550.028703184,0.0049,-0.0161,1.0098,-0.725,-0.22,158.868
1550.128703295,0.0034,-0.0098,1.0088,-0.725,-0.225,158.868
1550.228703407,0.0034,-0.0098,1.0088,-0.725,-0.225,158.868
1550.328703492,0.0034,-0.0098,1.0088,-0.725,-0.225,158.868
1550.428703524,0.0059,-0.0161,1.0098,-0.72,-0.225,158.868
1550.528703612,0.0024,-0.0132,1.0088,-0.72,-0.231,158.868
1550.628703738,0.0024,-0.0112,1.0093,-0.72,-0.231,158.868
1550.728703826,0.0044,-0.0098,1.0093,-0.72,-0.231,158.868
1550.828703877,0.0073,-0.0112,1.0088,-0.714,-0.231,158.868
1550.928703909,0.0063,-0.0132,1.0103,-0.714,-0.231,158.868
1551.028703923,0.001,-0.0142,1.0088,-0.714,-0.236,158.868
1551.128703956,0.001,-0.0117,1.0093,-0.714,-0.236,158.868
1551.228704044,0.0044,-0.0112,1.0103,-0.714,-0.236,158.868
1551.328704051,0.0068,-0.0117,1.0098,-0.709,-0.236,158.868
1551.428704061,0.0029,-0.0117,1.0098,-0.709,-0.236,158.868
1551.529420449,0.002,-0.0107,1.0088,-0.709,-0.236,158.868
1551.629420552,0.0044,-0.0137,1.0098,-0.709,-0.236,158.868
1551.729420655,0.0054,-0.0146,1.0107,-0.709,-0.236,158.868
1551.82942074,0.0039,-0.0122,1.0093,-0.709,-0.236,158.868
1551.929647306,0.0039,-0.0093,1.0103,-0.709,-0.236,158.868
1552.02964741,0.0049,-0.0117,1.0093,-0.709,-0.236,158.868
1552.129647531,0.0044,-0.0132,1.0093,-0.709,-0.242,158.868
1552.229647597,0.0044,-0.0137,1.0093,-0.709,-0.242,158.868
1552.329647619,0.0029,-0.0117,1.0103,-0.709,-0.242,158.868
1552.429647646,0.0039,-0.0103,1.0088,-0.709,-0.242,158.868
1552.529647655,0.0054,-0.0122,1.0098,-0.703,-0.242,158.868
1552.629647756,0.0054,-0.0117,1.0093,-0.703,-0.242,158.868
1552.72964782,0.0034,-0.0117,1.0098,-0.703,-0.242,158.868
1552.829647866,0.0024,-0.0112,1.0098,-0.703,-0.242,158.868
1552.929647893,0.0044,-0.0132,1.0093,-0.703,-0.242,158.868
1553.029647976,0.0049,-0.0127,1.0093,-0.703,-0.242,158.868
1553.129648096,0.0054,-0.0107,1.0103,-0.698,-0.242,158.868
1553.229648216,0.0034,-0.0132,1.0093,-0.698,-0.242,158.868
1553.329648274,0.0044,-0.0146,1.0093,-0.698,-0.242,158.868
1553.429648338,0.0054,-0.0117,1.0093,-0.698,-0.242,158.868
1553.529648402,0.0059,-0.0083,1.0093,-0.698,-0.247,158.868
1553.629648448,0.0024,-0.0122,1.0098,-0.698,-0.247,158.868
1553.72964853,0.0024,-0.0156,1.0083,-0.698,-0.247,158.868
1553.829648539,0.0044,-0.0142,1.0098,-0.698,-0.247,158.868
1553.929648621,0.0059,-0.0107,1.0103,-0.698,-0.247,158.868
1554.029648667,0.0034,-0.0103,1.0098,-0.698,-0.247,158.868
1554.129648712,0.0034,-0.0107,1.0078,-0.698,-0.247,158.868
1554.229648739,0.0083,-0.0142,1.0098,-0.698,-0.247,158.868
1554.329648743,0.0054,-0.0142,1.0098,-0.698,-0.247,158.868
1554.429648753,0.0,-0.0117,1.0078,-0.698,-0.247,158.868
1554.529648763,0.001,-0.0117,1.0093,-0.698,-0.247,158.868
1554.629648773,0.0078,-0.0117,1.0103,-0.698,-0.247,158.868
1554.729648856,0.0093,-0.0127,1.0107,-0.698,-0.247,158.868
1554.829648977,0.0029,-0.0112,1.0098,-0.698,-0.253,158.868
1554.929649024,-0.001,-0.0112,1.0088,-0.698,-0.253,158.868
1555.02964909,0.0029,-0.0132,1.0088,-0.698,-0.253,158.868
1555.129649155,0.0068,-0.0156,1.0093,-0.698,-0.253,158.868
1555.229649257,0.0059,-0.0127,1.0093,-0.698,-0.253,158.868
1555.32964932,0.0039,-0.0078,1.0088,-0.698,-0.253,158.868
1555.429649407,0.0044,-0.0098,1.0093,-0.698,-0.253,158.868
1555.529649493,0.0068,-0.0146,1.0088,-0.698,-0.253,158.868
1555.629649525,0.0044,-0.0146,1.0093,-0.698,-0.253,158.868
1555.729649593,0.002,-0.0103,1.0093,-0.698,-0.253,158.868
1555.829649717,0.0059,-0.0117,1.0093,-0.698,-0.247,158.868
1555.929649785,0.0068,-0.0132,1.0103,-0.698,-0.247,158.868
1556.029649853,0.0049,-0.0112,1.0093,-0.698,-0.247,158.868
1556.12964994,0.0005,-0.0107,1.0093,-0.698,-0.247,158.868
1556.229650027,0.0024,-0.0132,1.0083,-0.698,-0.247,158.868
1556.329650083,0.0068,-0.0151,1.0093,-0.692,-0.247,158.868
1556.429650175,0.0063,-0.0117,1.0093,-0.692,-0.247,158.868
1556.529650192,0.0039,-0.0088,1.0088,-0.698,-0.247,158.868
1556.629650283,0.0015,-0.0107,1.0088,-0.698,-0.247,158.868
1556.729650301,0.0039,-0.0137,1.0093,-0.698,-0.247,158.868
1556.830228463,0.0054,-0.0142,1.0093,-0.698,-0.247,158.868
1556.930228573,0.0044,-0.0127,1.0093,-0.698,-0.247,158.868
1557.030228664,0.0024,-0.0103,1.0088,-0.698,-0.247,158.868
1557.130758986,0.0034,-0.0112,1.0103,-0.698,-0.247,158.868
1557.230759021,0.0063,-0.0117,1.0098,-0.698,-0.247,158.868
1557.330759118,0.0054,-0.0132,1.0103,-0.698,-0.247,158.868
1557.43075916,0.0024,-0.0127,1.0093,-0.698,-0.247,158.868
1557.530759165,0.0029,-0.0117,1.0088,-0.698,-0.247,158.868
1557.63075917,0.0049,-0.0127,1.0098,-0.698,-0.247,158.868
1557.730759267,0.0063,-0.0117,1.0093,-0.698,-0.247,158.868
1557.830759291,0.0039,-0.0107,1.0088,-0.698,-0.247,158.868
1557.930759351,0.0029,-0.0112,1.0093,-0.698,-0.247,158.868
1558.030759374,0.0039,-0.0127,1.0098,-0.698,-0.247,158.868
1558.130759472,0.0049,-0.0137,1.0093,-0.698,-0.247,158.868
1558.230759513,0.0034,-0.0127,1.0093,-0.698,-0.247,158.868
1558.330759525,0.0029,-0.0107,1.0103,-0.698,-0.247,158.868
1558.430759575,0.0044,-0.0122,1.0098,-0.698,-0.247,158.868
1558.53075968,0.0059,-0.0127,1.0093,-0.698,-0.247,158.868
1558.630759711,0.0044,-0.0132,1.0093,-0.698,-0.247,158.868
1558.730759834,0.002,-0.0122,1.0103,-0.698,-0.247,158.868
1558.830759865,0.0039,-0.0117,1.0103,-0.698,-0.247,158.868
1558.930759914,0.0054,-0.0122,1.0098,-0.698,-0.247,158.868
1559.030759945,0.0054,-0.0122,1.0098,-0.698,-0.247,158.868
1559.130759958,0.0034,-0.0103,1.0093,-0.698,-0.247,158.868
1559.230760081,0.0034,-0.0117,1.0093,-0.698,-0.247,158.868
1559.330760121,0.0049,-0.0137,1.0098,-0.698,-0.247,158.868
1559.430760124,0.0049,-0.0137,1.0098,-0.698,-0.247,158.868
1559.530760182,0.0039,-0.0122,1.0093,-0.698,-0.247,158.868
1559.630760204,0.0029,-0.0112,1.0098,-0.698,-0.247,158.868
1559.730760244,0.0044,-0.0117,1.0093,-0.698,-0.247,158.868
1559.830760247,0.0049,-0.0127,1.0098,-0.698,-0.247,158.868
1559.930760305,0.0039,-0.0122,1.0093,-0.698,-0.247,158.868
1560.030760345,0.0029,-0.0112,1.0093,-0.698,-0.247,158.868
1560.130760441,0.0054,-0.0107,1.0093,-0.698,-0.247,158.868
1560.230760537,0.0054,-0.0127,1.0098,-0.698,-0.247,158.868
1560.330760587,0.0044,-0.0122,1.0093,-0.698,-0.247,158.868
1560.430760693,0.0029,-0.0107,1.0093,-0.698,-0.242,158.868
1560.530760762,0.0039,-0.0117,1.0098,-0.698,-0.242,158.868
1560.630760776,0.0068,-0.0117,1.0093,-0.698,-0.242,158.868
1560.730760826,0.0059,-0.0112,1.0098,-0.698,-0.242,158.868
1560.830760914,0.0039,-0.0112,1.0098,-0.698,-0.242,158.868
1560.930760946,0.0024,-0.0122,1.0098,-0.698,-0.247,158.868
1561.030760997,0.0034,-0.0142,1.0088,-0.698,-0.247,158.868
1561.130761011,0.0039,-0.0122,1.0103,-0.698,-0.247,158.868
1561.230761117,0.0034,-0.0127,1.0098,-0.698,-0.247,158.868
1561.330761235,0.0034,-0.0122,1.0098,-0.698,-0.242,158.868
1561.43076126,0.0039,-0.0122,1.0098,-0.698,-0.242,158.868
1561.530761323,0.0044,-0.0127,1.0093,-0.698,-0.242,158.868
1561.630761349,0.0059,-0.0122,1.0093,-0.698,-0.242,158.868
1561.730761356,0.0044,-0.0117,1.0093,-0.698,-0.242,158.868
1561.830761456,0.0024,-0.0112,1.0098,-0.698,-0.242,158.868
1561.930761556,0.0034,-0.0117,1.0093,-0.698,-0.242,158.868
1562.030761563,0.0034,-0.0117,1.0103,-0.698,-0.242,158.868
1562.130761571,0.0054,-0.0132,1.0098,-0.698,-0.242,158.868
1562.230761615,0.0063,-0.0112,1.0093,-0.698,-0.242,158.868
1562.330761709,0.0034,-0.0107,1.0088,-0.698,-0.247,158.868
1562.430761804,0.0029,-0.0107,1.0088,-0.698,-0.247,158.868
1562.530761862,0.0039,-0.0132,1.0103,-0.698,-0.247,158.868
1562.630761902,0.0054,-0.0103,1.0083,-0.698,-0.247,158.868
1562.730761978,0.0034,-0.0142,1.0088,-0.698,-0.247,158.868
1562.830762073,0.0049,-0.0156,1.0112,-0.698,-0.247,158.868
1562.93076215,0.0034,-0.0142,1.0088,-0.698,-0.247,158.868
1563.030762226,0.0054,-0.0117,1.0093,-0.698,-0.247,158.868
1563.130762284,0.0,-0.0029,1.0146,-0.698,-0.247,158.868
1563.230762287,0.0054,-0.0132,1.0083,-0.692,-0.242,158.868
1563.330762396,0.0083,-0.0171,1.0049,-0.692,-0.247,158.868
1563.430762524,0.0024,-0.0122,1.0137,-0.687,-0.247,158.868
1563.530762597,0.0,-0.0083,1.0078,-0.687,-0.247,158.868
1563.630762708,0.0034,-0.0127,1.0107,-0.687,-0.253,158.868
1563.730762744,0.0034,-0.0127,1.0107,-0.687,-0.258,158.868
1563.830762761,0.0034,-0.0127,1.0107,-0.687,-0.258,158.868
1563.930762816,0.0034,-0.0127,1.0107,-0.692,-0.956,159.78
1564.030762852,0.0034,-0.1104,1.0122,-2.994,-0.286,159.653
1564.130762925,0.0317,-0.1514,0.9897,-5.856,-0.84,160.444
1564.23076298,0.0513,-0.144,1.0049,-8.218,-2.131,162.175
1564.33076305,0.0669,-0.1855,0.9897,-10.486,-4.048,163.74
1564.430763158,0.084,-0.2095,0.9775,-12.75,-5.933,165.207
1564.530763248,0.1338,-0.2588,0.9648,-14.035,-7.614,166.311
1564.630763263,0.2344,-0.1606,0.9629,-14.035,-7.614,166.311
1564.730763279,0.1934,-0.1689,0.9927,-14.035,-7.614,166.311
1564.830763387,0.1934,-0.1689,0.9927,-14.035,-7.614,166.311
1564.930763496,0.4053,-0.0601,0.9194,-4.861,-21.797,174.15
1565.030763548,0.4517,-0.0513,0.8999,-2.763,-25.214,175.825
1565.130763601,0.4839,-0.0063,0.8862,-1.066,-26.746,177.122
1565.230763709,0.4648,-0.0322,0.8979,-0.89,-27.658,177.589
1565.330763723,0.478,-0.0498,0.8828,-0.912,-29.707,178.193
1565.430763738,0.5483,-0.0112,0.8374,-0.928,-32.701,178.956
1565.530763828,0.6104,0.0151,0.8276,-0.928,-35.167,179.594
1565.630763917,0.6421,-0.0254,0.7705,-0.895,-40.001,-179.308
1565.730763988,0.688,-0.0195,0.7305,-0.934,-42.759,-178.797
1565.83076404,0.7368,-0.0127,0.687,-0.956,-44.901,-178.709
1565.930764092,0.7563,-0.0161,0.6606,-0.972,-46.78,-178.83
1566.030764163,0.7554,-0.0156,0.668,-0.983,-47.659,-178.885
1566.130764178,0.7725,-0.0137,0.6455,-0.989,-48.444,-178.885
1566.230764305,0.7744,-0.0142,0.6426,-0.994,-49.664,-178.945
1566.33076443,0.7974,-0.0195,0.6128,-1.0,-52.026,-179.121
1566.430764447,0.8354,-0.0137,0.5542,-1.022,-54.827,-179.127
1566.530764463,0.8433,-0.0137,0.5454,-1.044,-55.497,-179.203
1566.630764572,0.8525,-0.0137,0.5396,-1.066,-55.931,-179.495
1566.730764681,0.8569,-0.0117,0.5239,-1.099,-57.475,-179.94
1566.830764808,0.8682,-0.0117,0.5083,-1.132,-58.629,179.819
1566.930764861,0.8745,-0.0151,0.4946,-1.154,-59.271,179.544
1567.030764989,0.874,-0.0166,0.4878,-1.176,-58.936,179.198
1567.130765005,0.8501,-0.0122,0.5332,-1.17,-56.865,178.693
1567.230765021,0.8213,-0.0117,0.584,-1.165,-54.163,178.171
1567.330765075,0.8066,-0.0151,0.6021,-1.176,-52.57,177.792
1567.430765149,0.8066,-0.0151,0.6021,-1.176,-52.57,177.792
1567.530765168,0.8066,-0.0151,0.6021,-1.176,-52.57,177.792
1567.630765242,0.8066,-0.0151,0.6021,-1.137,-47.071,175.649
1567.730765279,0.8066,-0.0151,0.6021,-1.11,-45.456,175.029
1567.830765354,0.7021,-0.0103,0.7314,-1.11,-45.456,175.029
1567.930765409,0.7021,-0.0103,0.7314,-1.115,-46.241,175.303
1568.030765484,0.791,-0.0176,0.6138,-1.159,-51.268,176.429
1568.130765613,0.8032,-0.0103,0.5913,-1.17,-56.135,175.952
1568.230765725,0.8506,-0.0112,0.5171,-1.192,-57.453,176.056
1568.330765782,0.8506,-0.0112,0.5171,-1.192,-57.453,176.056
1568.430765898,0.8506,-0.0112,0.5171,-1.192,-57.453,176.056
1568.530765976,0.8506,-0.0112,0.5171,-1.192,-57.453,176.056
1568.630766072,0.8506,-0.0112,0.5171,-1.192,-57.453,176.056
1568.730766076,0.8506,-0.0112,0.5171,-1.192,-57.453,176.056
1568.830766117,0.8506,-0.0112,0.5171,-1.033,-17.825,167.091
1568.930766195,0.2383,-0.0327,1.0024,-1.208,-12.854,169.904
1569.030766199,0.168,0.0278,1.0029,-1.307,-8.668,171.145
1569.130766203,0.0347,-0.0229,1.02,-1.313,-3.757,171.612
1569.230766245,0.0015,-0.0049,1.0103,-1.291,-2.032,171.909
1569.330766307,-0.0029,-0.0088,0.9683,-1.159,-1.906,171.92
1569.430766335,0.0078,-0.0181,1.0093,-1.219,-2.021,172.095
1569.5307664,0.0054,-0.0107,1.0098,-1.187,-1.939,172.343
1569.630766502,0.0024,-0.0054,1.0093,-1.159,-1.846,172.59
1569.730766604,0.0054,-0.0103,1.0093,-1.132,-1.758,172.837
1569.830766669,0.0078,-0.0166,1.0093,-1.11,-1.675,173.068
1569.930766678,0.0044,-0.0146,1.0088,-1.088,-1.599,173.298
1570.030766743,0.0,-0.0103,1.0098,-1.066,-1.522,173.507
1570.130766826,0.0029,-0.0107,1.0098,-1.044,-1.45,173.699
1570.230766854,0.0103,-0.0127,1.0083,-1.022,-1.384,173.897
1570.330766861,0.0083,-0.0112,1.0088,-1.005,-1.318,174.073
1570.43076697,0.0005,-0.0098,1.0088,-0.989,-1.263,174.238
1570.530767078,0.0015,-0.0137,1.0093,-0.972,-1.203,174.413
1570.630767113,0.0063,-0.0156,1.0093,-0.956,-1.154,174.567
1570.730767221,0.0068,-0.0117,1.0103,-0.939,-1.104,174.716
1570.830767256,0.0044,-0.0088,1.0098,-0.923,-1.055,174.853
1570.930767309,0.0029,-0.0107,1.0093,-0.906,-1.011,174.968
1571.032054805,0.0054,-0.0132,1.0093,-0.895,-0.972,175.073
1571.132054895,0.0049,-0.0132,1.0093,-0.884,-0.934,175.155
1571.232054911,0.001,-0.0117,1.0098,-0.873,-0.895,175.248
1571.332055016,0.0039,-0.0137,1.0093,-0.862,-0.862,175.342
1571.432055078,0.0103,-0.0122,1.0093,-0.851,-0.829,175.419
1571.532055176,0.0088,-0.0146,1.0093,-0.84,-0.802,175.507
1571.632055218,0.0,-0.0122,1.0103,-0.829,-0.769,175.594
1571.732055224,-0.0024,-0.0107,1.0093,-0.818,-0.742,175.682
1571.832055248,0.0093,-0.0156,1.0093,-0.813,-0.72,175.765
1571.932055328,0.0044,-0.0083,1.0093,-0.802,-0.692,175.836
1572.03205537,0.0049,-0.0098,1.0093,-0.797,-0.665,175.897
1572.132055431,0.0073,-0.0132,1.0098,-0.791,-0.643,175.946
1572.232056993,0.0044,-0.0103,1.0098,-0.786,-0.626,176.006
1572.332057033,0.0024,-0.0156,1.0093,-0.78,-0.604,176.067
1572.432057085,0.002,-0.0122,1.0088,-0.769,-0.588,176.122
1572.532057156,0.0044,-0.0088,1.0088,-0.764,-0.571,176.188
1572.632057263,0.0063,-0.0112,1.0098,-0.758,-0.56,176.248
1572.732057297,0.0029,-0.0137,1.0093,-0.758,-0.544,176.292
1572.832057331,0.0107,-0.0132,1.0137,-0.753,-0.533,176.331
1572.932057346,0.0088,-0.0166,1.0063,-0.747,-0.522,176.353
1573.032057435,-0.0073,-0.0122,1.0093,-0.742,-0.505,176.375
1573.13205745,0.0044,-0.0254,1.0073,-0.742,-0.5,176.407
1573.23205752,0.0029,-0.0098,1.0107,-0.731,-0.489,176.429
1573.332057627,0.0029,0.0039,1.0088,-0.72,-0.478,176.457
1573.432057653,0.0161,-0.0083,1.0103,-0.72,-0.472,176.501
1573.532057753,-0.0039,-0.0161,1.0098,-0.714,-0.456,176.512
1573.632057779,-0.0024,-0.021,1.0088,-0.714,-0.456,176.523
1573.73205786,0.0039,-0.0249,1.0088,-0.72,-0.45,176.528
1573.832057905,0.0093,0.0,1.0103,-0.72,-0.439,176.545
1573.932057949,0.0171,-0.0083,1.0093,-0.725,-0.439,176.578
1574.032057993,0.0049,-0.0083,1.0098,-0.72,-0.434,176.583
1574.132058038,0.0,-0.0171,1.0088,-0.714,-0.423,176.572
1574.232058082,0.0068,-0.02,1.0088,-0.703,-0.412,176.578
1574.332058164,-0.0005,-0.0103,1.0098,-0.703,-0.406,176.594
1574.432058184,0.0093,-0.0112,1.0088,-0.703,-0.406,176.605
1574.532058222,0.0078,-0.0034,1.0093,-0.703,-0.401,176.611
1574.632058241,0.0068,-0.0127,1.0093,-0.709,-0.401,176.622
1574.732058279,0.002,-0.0132,1.0088,-0.709,-0.396,176.633
1574.832058336,0.0049,-0.0176,1.0093,-0.709,-0.39,176.638
1574.93205843,0.0024,-0.0107,1.0093,-0.703,-0.385,176.649
1575.032058486,0.0054,-0.0122,1.0093,-0.703,-0.374,176.655
1575.132058524,0.0083,-0.0107,1.0098,-0.703,-0.374,176.66
1575.232058581,0.0059,-0.0122,1.0098,-0.703,-0.368,176.671
1575.332058695,0.0063,-0.0117,1.0107,-0.703,-0.363,176.677
1575.432058821,-0.0005,-0.0044,1.0098,-0.703,-0.352,176.682
1575.532058854,0.0024,-0.0298,1.0083,-0.703,-0.346,176.688
1575.632058868,-0.0078,-0.0122,1.0088,-0.698,-0.335,176.693
1575.732058883,0.0107,-0.0142,1.0093,-0.698,-0.335,176.699
1575.832058897,0.0098,-0.0083,1.0098,-0.698,-0.33,176.699
1575.932058931,0.0029,-0.0083,1.0093,-0.698,-0.324,176.704
1576.032059001,0.0083,-0.0142,1.0088,-0.698,-0.319,176.71
1576.132059071,0.0054,-0.0054,1.0103,-0.698,-0.319,176.715
1576.232059122,0.0059,-0.0186,1.0098,-0.698,-0.313,176.715
1576.332059214,-0.001,-0.0107,1.0098,-0.698,-0.302,176.721
1576.432059244,0.0166,-0.019,1.0039,-0.698,-0.302,176.721
1576.532059292,-0.0024,-0.0137,1.0122,-0.698,-0.291,176.726
1576.632059377,-0.0059,-0.0161,1.0083,-0.698,-0.291,176.726
1576.732059425,0.0073,-0.0171,1.0103,-0.698,-0.291,176.732
1576.832059454,0.0073,-0.0039,1.0088,-0.692,-0.286,176.732
1576.932059539,0.0083,-0.0137,1.0093,-0.698,-0.286,176.737
1577.032059661,0.0005,-0.0088,1.0088,-0.698,-0.28,176.737
1577.132222488,0.0044,-0.0161,1.0093,-0.698,-0.28,176.743
1577.232222591,0.0029,-0.0132,1.0098,-0.698,-0.275,176.743
